language_mouse.x,language_mouse.y,language_mouse.leftButton,language_mouse.midButton,language_mouse.rightButton,language_mouse.time,language_mouse.clicked_name,nationality,mother_tongue,homeland,gender,age,email,date,expName,psychopyVersion,OS,frameRate,fbclid,cancel_experiment,cancel_reasons,client_agent_information,windowWidth,windowHeight,xRes,yRes,start_exp_mouse.x,start_exp_mouse.y,start_exp_mouse.leftButton,start_exp_mouse.midButton,start_exp_mouse.rightButton,start_exp_mouse.time,start_exp_mouse.clicked_name,rating_slider.response,rating_slider.rt,next_trial_mouse.x,next_trial_mouse.y,next_trial_mouse.leftButton,next_trial_mouse.midButton,next_trial_mouse.rightButton,next_trial_mouse.clicked_name,trials.thisRepN,trials.thisTrialN,trials.thisN,trials.thisIndex,trials.ran,environment,sunVisibility,cloudVisibility,imageId,imgSize,globalClockTime
0.2734375,-0.260416667,1,0,0,0.6795,gr_flag,multiple,multiple,gr,f,22,,2021-09-01_13h26.17.052,online_experiment,2021.1.4,Win32,57.36905513,IwAR1pSn2KpX9iCLNhFqvD6Ujk1BOXhZiXE0Hh8rZY6_WoCvwR5-vFe0FkxWQ,FALSE,,"Mozilla/5.0 (Windows NT 10.0; Win64; x64) AppleWebKit/537.36 (KHTML, like Gecko) Chrome/92.0.4515.159 Safari/537.36",1366,663,1366,768,,,,,,,,,,,,,,,,,,,,,,,,,,
,,,,,,,multiple,multiple,gr,f,22,,2021-09-01_13h26.17.052,online_experiment,2021.1.4,Win32,57.36905513,IwAR1pSn2KpX9iCLNhFqvD6Ujk1BOXhZiXE0Hh8rZY6_WoCvwR5-vFe0FkxWQ,FALSE,,"Mozilla/5.0 (Windows NT 10.0; Win64; x64) AppleWebKit/537.36 (KHTML, like Gecko) Chrome/92.0.4515.159 Safari/537.36",1366,663,1366,768,0.027149321,-0.436651584,1,0,0,281.6247,cont_gr,5,9.7126,0.395173454,-0.445701357,1,0,0,next_trial_button,0,0,0,58,1,beach,visiblesun,noclouds,7,"1028.5714285714284,500",
,,,,,,,multiple,multiple,gr,f,22,,2021-09-01_13h26.17.052,online_experiment,2021.1.4,Win32,57.36905513,IwAR1pSn2KpX9iCLNhFqvD6Ujk1BOXhZiXE0Hh8rZY6_WoCvwR5-vFe0FkxWQ,FALSE,,"Mozilla/5.0 (Windows NT 10.0; Win64; x64) AppleWebKit/537.36 (KHTML, like Gecko) Chrome/92.0.4515.159 Safari/537.36",1366,663,1366,768,,,,,,,,7,5.6211,0.431372549,-0.412518854,1,0,0,next_trial_button,0,1,1,59,1,beach,visiblesun,yesclouds,7,"888.9689978370584,500",
,,,,,,,multiple,multiple,gr,f,22,,2021-09-01_13h26.17.052,online_experiment,2021.1.4,Win32,57.36905513,IwAR1pSn2KpX9iCLNhFqvD6Ujk1BOXhZiXE0Hh8rZY6_WoCvwR5-vFe0FkxWQ,FALSE,,"Mozilla/5.0 (Windows NT 10.0; Win64; x64) AppleWebKit/537.36 (KHTML, like Gecko) Chrome/92.0.4515.159 Safari/537.36",1366,663,1366,768,,,,,,,,8,3.9059,0.365007541,-0.411010558,1,0,0,next_trial_button,0,2,2,24,1,beach,invisiblesun,noclouds,3,"750.089190153407,500",
,,,,,,,multiple,multiple,gr,f,22,,2021-09-01_13h26.17.052,online_experiment,2021.1.4,Win32,57.36905513,IwAR1pSn2KpX9iCLNhFqvD6Ujk1BOXhZiXE0Hh8rZY6_WoCvwR5-vFe0FkxWQ,FALSE,,"Mozilla/5.0 (Windows NT 10.0; Win64; x64) AppleWebKit/537.36 (KHTML, like Gecko) Chrome/92.0.4515.159 Safari/537.36",1366,663,1366,768,,,,,,,,5,5.6296,0.390648567,-0.444193062,1,0,0,next_trial_button,0,3,3,71,1,landscape,visiblesun,yesclouds,8,"666.6666666666666,500",
,,,,,,,multiple,multiple,gr,f,22,,2021-09-01_13h26.17.052,online_experiment,2021.1.4,Win32,57.36905513,IwAR1pSn2KpX9iCLNhFqvD6Ujk1BOXhZiXE0Hh8rZY6_WoCvwR5-vFe0FkxWQ,FALSE,,"Mozilla/5.0 (Windows NT 10.0; Win64; x64) AppleWebKit/537.36 (KHTML, like Gecko) Chrome/92.0.4515.159 Safari/537.36",1366,663,1366,768,,,,,,,,10,5.0005,0.408748115,-0.432126697,1,0,0,next_trial_button,0,4,4,22,1,landscape,visiblesun,noclouds,2,"749.3333333333333,500",
,,,,,,,multiple,multiple,gr,f,22,,2021-09-01_13h26.17.052,online_experiment,2021.1.4,Win32,57.36905513,IwAR1pSn2KpX9iCLNhFqvD6Ujk1BOXhZiXE0Hh8rZY6_WoCvwR5-vFe0FkxWQ,FALSE,,"Mozilla/5.0 (Windows NT 10.0; Win64; x64) AppleWebKit/537.36 (KHTML, like Gecko) Chrome/92.0.4515.159 Safari/537.36",1366,663,1366,768,,,,,,,,5,4.2842,0.453996983,-0.429110106,1,0,0,next_trial_button,0,5,5,5,1,landscape,invisiblesun,yesclouds,0,"750.4690431519699,500",
,,,,,,,multiple,multiple,gr,f,22,,2021-09-01_13h26.17.052,online_experiment,2021.1.4,Win32,57.36905513,IwAR1pSn2KpX9iCLNhFqvD6Ujk1BOXhZiXE0Hh8rZY6_WoCvwR5-vFe0FkxWQ,FALSE,,"Mozilla/5.0 (Windows NT 10.0; Win64; x64) AppleWebKit/537.36 (KHTML, like Gecko) Chrome/92.0.4515.159 Safari/537.36",1366,663,1366,768,,,,,,,,7,3.8332,0.401206637,-0.426093514,1,0,0,next_trial_button,0,6,6,8,1,beach,invisiblesun,noclouds,1,"1215.1898734177216,500",
,,,,,,,multiple,multiple,gr,f,22,,2021-09-01_13h26.17.052,online_experiment,2021.1.4,Win32,57.36905513,IwAR1pSn2KpX9iCLNhFqvD6Ujk1BOXhZiXE0Hh8rZY6_WoCvwR5-vFe0FkxWQ,FALSE,,"Mozilla/5.0 (Windows NT 10.0; Win64; x64) AppleWebKit/537.36 (KHTML, like Gecko) Chrome/92.0.4515.159 Safari/537.36",1366,663,1366,768,,,,,,,,9,2.2069,0.346907994,-0.407993967,1,0,0,next_trial_button,0,7,7,47,1,landscape,visiblesun,yesclouds,5,"666.6666666666666,500",
,,,,,,,multiple,multiple,gr,f,22,,2021-09-01_13h26.17.052,online_experiment,2021.1.4,Win32,57.36905513,IwAR1pSn2KpX9iCLNhFqvD6Ujk1BOXhZiXE0Hh8rZY6_WoCvwR5-vFe0FkxWQ,FALSE,,"Mozilla/5.0 (Windows NT 10.0; Win64; x64) AppleWebKit/537.36 (KHTML, like Gecko) Chrome/92.0.4515.159 Safari/537.36",1366,663,1366,768,,,,,,,,9,3.2503,0.452488688,-0.420060332,1,0,0,next_trial_button,0,8,8,6,1,landscape,visiblesun,noclouds,0,"1413.8005159071367,500",
,,,,,,,multiple,multiple,gr,f,22,,2021-09-01_13h26.17.052,online_experiment,2021.1.4,Win32,57.36905513,IwAR1pSn2KpX9iCLNhFqvD6Ujk1BOXhZiXE0Hh8rZY6_WoCvwR5-vFe0FkxWQ,FALSE,,"Mozilla/5.0 (Windows NT 10.0; Win64; x64) AppleWebKit/537.36 (KHTML, like Gecko) Chrome/92.0.4515.159 Safari/537.36",1366,663,1366,768,,,,,,,,8,4.9896,0.393665158,-0.389894419,1,0,0,next_trial_button,0,9,9,3,1,beach,visiblesun,yesclouds,0,"1152.5122276567363,500",
,,,,,,,multiple,multiple,gr,f,22,,2021-09-01_13h26.17.052,online_experiment,2021.1.4,Win32,57.36905513,IwAR1pSn2KpX9iCLNhFqvD6Ujk1BOXhZiXE0Hh8rZY6_WoCvwR5-vFe0FkxWQ,FALSE,,"Mozilla/5.0 (Windows NT 10.0; Win64; x64) AppleWebKit/537.36 (KHTML, like Gecko) Chrome/92.0.4515.159 Safari/537.36",1366,663,1366,768,,,,,,,,8,4.0501,0.333333333,-0.424585219,1,0,0,next_trial_button,0,10,10,0,1,beach,invisiblesun,noclouds,0,"750,500",
,,,,,,,multiple,multiple,gr,f,22,,2021-09-01_13h26.17.052,online_experiment,2021.1.4,Win32,57.36905513,IwAR1pSn2KpX9iCLNhFqvD6Ujk1BOXhZiXE0Hh8rZY6_WoCvwR5-vFe0FkxWQ,FALSE,,"Mozilla/5.0 (Windows NT 10.0; Win64; x64) AppleWebKit/537.36 (KHTML, like Gecko) Chrome/92.0.4515.159 Safari/537.36",1366,663,1366,768,,,,,,,,6,4.3262,0.411764706,-0.430618401,1,0,0,next_trial_button,0,11,11,10,1,beach,visiblesun,noclouds,1,"747.0261697065821,500",
,,,,,,,multiple,multiple,gr,f,22,,2021-09-01_13h26.17.052,online_experiment,2021.1.4,Win32,57.36905513,IwAR1pSn2KpX9iCLNhFqvD6Ujk1BOXhZiXE0Hh8rZY6_WoCvwR5-vFe0FkxWQ,FALSE,,"Mozilla/5.0 (Windows NT 10.0; Win64; x64) AppleWebKit/537.36 (KHTML, like Gecko) Chrome/92.0.4515.159 Safari/537.36",1366,663,1366,768,,,,,,,,6,2.4229,0.428355958,-0.391402715,1,0,0,next_trial_button,0,12,12,23,1,landscape,visiblesun,yesclouds,2,"767.97829036635,500",
,,,,,,,multiple,multiple,gr,f,22,,2021-09-01_13h26.17.052,online_experiment,2021.1.4,Win32,57.36905513,IwAR1pSn2KpX9iCLNhFqvD6Ujk1BOXhZiXE0Hh8rZY6_WoCvwR5-vFe0FkxWQ,FALSE,,"Mozilla/5.0 (Windows NT 10.0; Win64; x64) AppleWebKit/537.36 (KHTML, like Gecko) Chrome/92.0.4515.159 Safari/537.36",1366,663,1366,768,,,,,,,,7,5.0344,0.318250377,-0.415535445,1,0,0,next_trial_button,0,13,13,69,1,landscape,invisiblesun,yesclouds,8,"750,500",
,,,,,,,multiple,multiple,gr,f,22,,2021-09-01_13h26.17.052,online_experiment,2021.1.4,Win32,57.36905513,IwAR1pSn2KpX9iCLNhFqvD6Ujk1BOXhZiXE0Hh8rZY6_WoCvwR5-vFe0FkxWQ,FALSE,,"Mozilla/5.0 (Windows NT 10.0; Win64; x64) AppleWebKit/537.36 (KHTML, like Gecko) Chrome/92.0.4515.159 Safari/537.36",1366,663,1366,768,,,,,,,,5,2.4755,0.336349925,-0.412518854,1,0,0,next_trial_button,0,14,14,41,1,beach,invisiblesun,yesclouds,5,"1248.4394506866417,500",
,,,,,,,multiple,multiple,gr,f,22,,2021-09-01_13h26.17.052,online_experiment,2021.1.4,Win32,57.36905513,IwAR1pSn2KpX9iCLNhFqvD6Ujk1BOXhZiXE0Hh8rZY6_WoCvwR5-vFe0FkxWQ,FALSE,,"Mozilla/5.0 (Windows NT 10.0; Win64; x64) AppleWebKit/537.36 (KHTML, like Gecko) Chrome/92.0.4515.159 Safari/537.36",1366,663,1366,768,,,,,,,,8,2.6466,0.395173454,-0.415535445,1,0,0,next_trial_button,0,15,15,27,1,beach,visiblesun,yesclouds,3,"752.8089887640449,500",
,,,,,,,multiple,multiple,gr,f,22,,2021-09-01_13h26.17.052,online_experiment,2021.1.4,Win32,57.36905513,IwAR1pSn2KpX9iCLNhFqvD6Ujk1BOXhZiXE0Hh8rZY6_WoCvwR5-vFe0FkxWQ,FALSE,,"Mozilla/5.0 (Windows NT 10.0; Win64; x64) AppleWebKit/537.36 (KHTML, like Gecko) Chrome/92.0.4515.159 Safari/537.36",1366,663,1366,768,,,,,,,,6,4.5591,0.401206637,-0.420060332,1,0,0,next_trial_button,0,16,16,20,1,landscape,invisiblesun,noclouds,2,"755.192878338279,500",
,,,,,,,multiple,multiple,gr,f,22,,2021-09-01_13h26.17.052,online_experiment,2021.1.4,Win32,57.36905513,IwAR1pSn2KpX9iCLNhFqvD6Ujk1BOXhZiXE0Hh8rZY6_WoCvwR5-vFe0FkxWQ,FALSE,,"Mozilla/5.0 (Windows NT 10.0; Win64; x64) AppleWebKit/537.36 (KHTML, like Gecko) Chrome/92.0.4515.159 Safari/537.36",1366,663,1366,768,,,,,,,,7,5.0811,0.39668175,-0.406485671,1,0,0,next_trial_button,0,17,17,33,1,beach,invisiblesun,yesclouds,4,"751.5473032714411,500",
,,,,,,,multiple,multiple,gr,f,22,,2021-09-01_13h26.17.052,online_experiment,2021.1.4,Win32,57.36905513,IwAR1pSn2KpX9iCLNhFqvD6Ujk1BOXhZiXE0Hh8rZY6_WoCvwR5-vFe0FkxWQ,FALSE,,"Mozilla/5.0 (Windows NT 10.0; Win64; x64) AppleWebKit/537.36 (KHTML, like Gecko) Chrome/92.0.4515.159 Safari/537.36",1366,663,1366,768,,,,,,,,9,2.8578,0.363499246,-0.417043741,1,0,0,next_trial_button,0,18,18,21,1,landscape,invisiblesun,yesclouds,2,"750,500",
,,,,,,,multiple,multiple,gr,f,22,,2021-09-01_13h26.17.052,online_experiment,2021.1.4,Win32,57.36905513,IwAR1pSn2KpX9iCLNhFqvD6Ujk1BOXhZiXE0Hh8rZY6_WoCvwR5-vFe0FkxWQ,FALSE,,"Mozilla/5.0 (Windows NT 10.0; Win64; x64) AppleWebKit/537.36 (KHTML, like Gecko) Chrome/92.0.4515.159 Safari/537.36",1366,663,1366,768,,,,,,,,9,1.7369,0.37254902,-0.432126697,1,0,0,next_trial_button,0,19,19,46,1,landscape,visiblesun,noclouds,5,"750,500",
,,,,,,,multiple,multiple,gr,f,22,,2021-09-01_13h26.17.052,online_experiment,2021.1.4,Win32,57.36905513,IwAR1pSn2KpX9iCLNhFqvD6Ujk1BOXhZiXE0Hh8rZY6_WoCvwR5-vFe0FkxWQ,FALSE,,"Mozilla/5.0 (Windows NT 10.0; Win64; x64) AppleWebKit/537.36 (KHTML, like Gecko) Chrome/92.0.4515.159 Safari/537.36",1366,663,1366,768,,,,,,,,5,9.6385,0.387631976,-0.401960784,1,0,0,next_trial_button,0,20,20,36,1,landscape,invisiblesun,noclouds,4,"281.25,500",
,,,,,,,multiple,multiple,gr,f,22,,2021-09-01_13h26.17.052,online_experiment,2021.1.4,Win32,57.36905513,IwAR1pSn2KpX9iCLNhFqvD6Ujk1BOXhZiXE0Hh8rZY6_WoCvwR5-vFe0FkxWQ,FALSE,,"Mozilla/5.0 (Windows NT 10.0; Win64; x64) AppleWebKit/537.36 (KHTML, like Gecko) Chrome/92.0.4515.159 Safari/537.36",1366,663,1366,768,,,,,,,,8,3.9657,0.371040724,-0.423076923,1,0,0,next_trial_button,0,21,21,75,1,beach,visiblesun,yesclouds,9,"1029.6010296010297,500",
,,,,,,,multiple,multiple,gr,f,22,,2021-09-01_13h26.17.052,online_experiment,2021.1.4,Win32,57.36905513,IwAR1pSn2KpX9iCLNhFqvD6Ujk1BOXhZiXE0Hh8rZY6_WoCvwR5-vFe0FkxWQ,FALSE,,"Mozilla/5.0 (Windows NT 10.0; Win64; x64) AppleWebKit/537.36 (KHTML, like Gecko) Chrome/92.0.4515.159 Safari/537.36",1366,663,1366,768,,,,,,,,4,4.9301,0.357466063,-0.423076923,1,0,0,next_trial_button,0,22,22,60,1,landscape,invisiblesun,noclouds,7,"666.7268134247564,500",
,,,,,,,multiple,multiple,gr,f,22,,2021-09-01_13h26.17.052,online_experiment,2021.1.4,Win32,57.36905513,IwAR1pSn2KpX9iCLNhFqvD6Ujk1BOXhZiXE0Hh8rZY6_WoCvwR5-vFe0FkxWQ,FALSE,,"Mozilla/5.0 (Windows NT 10.0; Win64; x64) AppleWebKit/537.36 (KHTML, like Gecko) Chrome/92.0.4515.159 Safari/537.36",1366,663,1366,768,,,,,,,,8,2.0669,0.38612368,-0.401960784,1,0,0,next_trial_button,0,23,23,4,1,landscape,invisiblesun,noclouds,0,"1276.9171185127807,500",
,,,,,,,multiple,multiple,gr,f,22,,2021-09-01_13h26.17.052,online_experiment,2021.1.4,Win32,57.36905513,IwAR1pSn2KpX9iCLNhFqvD6Ujk1BOXhZiXE0Hh8rZY6_WoCvwR5-vFe0FkxWQ,FALSE,,"Mozilla/5.0 (Windows NT 10.0; Win64; x64) AppleWebKit/537.36 (KHTML, like Gecko) Chrome/92.0.4515.159 Safari/537.36",1366,663,1366,768,,,,,,,,7,3.0319,0.36199095,-0.429110106,1,0,0,next_trial_button,0,24,24,16,1,beach,invisiblesun,noclouds,2,"752.8089887640449,500",
,,,,,,,multiple,multiple,gr,f,22,,2021-09-01_13h26.17.052,online_experiment,2021.1.4,Win32,57.36905513,IwAR1pSn2KpX9iCLNhFqvD6Ujk1BOXhZiXE0Hh8rZY6_WoCvwR5-vFe0FkxWQ,FALSE,,"Mozilla/5.0 (Windows NT 10.0; Win64; x64) AppleWebKit/537.36 (KHTML, like Gecko) Chrome/92.0.4515.159 Safari/537.36",1366,663,1366,768,,,,,,,,7,2.5944,0.392156863,-0.429110106,1,0,0,next_trial_button,0,25,25,35,1,beach,visiblesun,yesclouds,4,"750,500",
,,,,,,,multiple,multiple,gr,f,22,,2021-09-01_13h26.17.052,online_experiment,2021.1.4,Win32,57.36905513,IwAR1pSn2KpX9iCLNhFqvD6Ujk1BOXhZiXE0Hh8rZY6_WoCvwR5-vFe0FkxWQ,FALSE,,"Mozilla/5.0 (Windows NT 10.0; Win64; x64) AppleWebKit/537.36 (KHTML, like Gecko) Chrome/92.0.4515.159 Safari/537.36",1366,663,1366,768,,,,,,,,6,3.8319,0.369532428,-0.395927602,1,0,0,next_trial_button,0,26,26,13,1,landscape,invisiblesun,yesclouds,1,"783.1192660550458,500",
,,,,,,,multiple,multiple,gr,f,22,,2021-09-01_13h26.17.052,online_experiment,2021.1.4,Win32,57.36905513,IwAR1pSn2KpX9iCLNhFqvD6Ujk1BOXhZiXE0Hh8rZY6_WoCvwR5-vFe0FkxWQ,FALSE,,"Mozilla/5.0 (Windows NT 10.0; Win64; x64) AppleWebKit/537.36 (KHTML, like Gecko) Chrome/92.0.4515.159 Safari/537.36",1366,663,1366,768,,,,,,,,1,3.1309,0.36199095,-0.392911011,1,0,0,next_trial_button,0,27,27,76,1,landscape,invisiblesun,noclouds,9,"1056.6037735849056,500",
,,,,,,,multiple,multiple,gr,f,22,,2021-09-01_13h26.17.052,online_experiment,2021.1.4,Win32,57.36905513,IwAR1pSn2KpX9iCLNhFqvD6Ujk1BOXhZiXE0Hh8rZY6_WoCvwR5-vFe0FkxWQ,FALSE,,"Mozilla/5.0 (Windows NT 10.0; Win64; x64) AppleWebKit/537.36 (KHTML, like Gecko) Chrome/92.0.4515.159 Safari/537.36",1366,663,1366,768,,,,,,,,8,2.4706,0.41025641,-0.411010558,1,0,0,next_trial_button,0,28,28,38,1,landscape,visiblesun,noclouds,4,"733.3333333333333,500",
,,,,,,,multiple,multiple,gr,f,22,,2021-09-01_13h26.17.052,online_experiment,2021.1.4,Win32,57.36905513,IwAR1pSn2KpX9iCLNhFqvD6Ujk1BOXhZiXE0Hh8rZY6_WoCvwR5-vFe0FkxWQ,FALSE,,"Mozilla/5.0 (Windows NT 10.0; Win64; x64) AppleWebKit/537.36 (KHTML, like Gecko) Chrome/92.0.4515.159 Safari/537.36",1366,663,1366,768,,,,,,,,1,5.6093,0.349924585,-0.415535445,1,0,0,next_trial_button,0,29,29,52,1,landscape,invisiblesun,noclouds,6,"666.6666666666666,500",
,,,,,,,multiple,multiple,gr,f,22,,2021-09-01_13h26.17.052,online_experiment,2021.1.4,Win32,57.36905513,IwAR1pSn2KpX9iCLNhFqvD6Ujk1BOXhZiXE0Hh8rZY6_WoCvwR5-vFe0FkxWQ,FALSE,,"Mozilla/5.0 (Windows NT 10.0; Win64; x64) AppleWebKit/537.36 (KHTML, like Gecko) Chrome/92.0.4515.159 Safari/537.36",1366,663,1366,768,,,,,,,,1,1.9705,0.371040724,-0.407993967,1,0,0,next_trial_button,0,30,30,68,1,landscape,invisiblesun,noclouds,8,"666.6666666666666,500",
,,,,,,,multiple,multiple,gr,f,22,,2021-09-01_13h26.17.052,online_experiment,2021.1.4,Win32,57.36905513,IwAR1pSn2KpX9iCLNhFqvD6Ujk1BOXhZiXE0Hh8rZY6_WoCvwR5-vFe0FkxWQ,FALSE,,"Mozilla/5.0 (Windows NT 10.0; Win64; x64) AppleWebKit/537.36 (KHTML, like Gecko) Chrome/92.0.4515.159 Safari/537.36",1366,663,1366,768,,,,,,,,8,3.1652,0.413273002,-0.389894419,1,0,0,next_trial_button,0,31,31,65,1,beach,invisiblesun,yesclouds,8,"750,500",
,,,,,,,multiple,multiple,gr,f,22,,2021-09-01_13h26.17.052,online_experiment,2021.1.4,Win32,57.36905513,IwAR1pSn2KpX9iCLNhFqvD6Ujk1BOXhZiXE0Hh8rZY6_WoCvwR5-vFe0FkxWQ,FALSE,,"Mozilla/5.0 (Windows NT 10.0; Win64; x64) AppleWebKit/537.36 (KHTML, like Gecko) Chrome/92.0.4515.159 Safari/537.36",1366,663,1366,768,,,,,,,,4,4.3456,0.46907994,-0.401960784,1,0,0,next_trial_button,0,32,32,56,1,beach,invisiblesun,noclouds,7,"1028.5714285714284,500",
,,,,,,,multiple,multiple,gr,f,22,,2021-09-01_13h26.17.052,online_experiment,2021.1.4,Win32,57.36905513,IwAR1pSn2KpX9iCLNhFqvD6Ujk1BOXhZiXE0Hh8rZY6_WoCvwR5-vFe0FkxWQ,FALSE,,"Mozilla/5.0 (Windows NT 10.0; Win64; x64) AppleWebKit/537.36 (KHTML, like Gecko) Chrome/92.0.4515.159 Safari/537.36",1366,663,1366,768,,,,,,,,6,3.146,0.464555053,-0.457767722,1,0,0,next_trial_button,0,33,33,66,1,beach,visiblesun,noclouds,8,"1028.5714285714284,500",
,,,,,,,multiple,multiple,gr,f,22,,2021-09-01_13h26.17.052,online_experiment,2021.1.4,Win32,57.36905513,IwAR1pSn2KpX9iCLNhFqvD6Ujk1BOXhZiXE0Hh8rZY6_WoCvwR5-vFe0FkxWQ,FALSE,,"Mozilla/5.0 (Windows NT 10.0; Win64; x64) AppleWebKit/537.36 (KHTML, like Gecko) Chrome/92.0.4515.159 Safari/537.36",1366,663,1366,768,,,,,,,,7,3.57,0.351432881,-0.394419306,1,0,0,next_trial_button,0,34,34,15,1,landscape,visiblesun,yesclouds,1,"333.3333333333333,500",
,,,,,,,multiple,multiple,gr,f,22,,2021-09-01_13h26.17.052,online_experiment,2021.1.4,Win32,57.36905513,IwAR1pSn2KpX9iCLNhFqvD6Ujk1BOXhZiXE0Hh8rZY6_WoCvwR5-vFe0FkxWQ,FALSE,,"Mozilla/5.0 (Windows NT 10.0; Win64; x64) AppleWebKit/537.36 (KHTML, like Gecko) Chrome/92.0.4515.159 Safari/537.36",1366,663,1366,768,,,,,,,,7,2.1936,0.355957768,-0.40346908,1,0,0,next_trial_button,0,35,35,26,1,beach,visiblesun,noclouds,3,"888.8888888888888,500",
,,,,,,,multiple,multiple,gr,f,22,,2021-09-01_13h26.17.052,online_experiment,2021.1.4,Win32,57.36905513,IwAR1pSn2KpX9iCLNhFqvD6Ujk1BOXhZiXE0Hh8rZY6_WoCvwR5-vFe0FkxWQ,FALSE,,"Mozilla/5.0 (Windows NT 10.0; Win64; x64) AppleWebKit/537.36 (KHTML, like Gecko) Chrome/92.0.4515.159 Safari/537.36",1366,663,1366,768,,,,,,,,7,2.2745,0.402714932,-0.397435897,1,0,0,next_trial_button,0,36,36,67,1,beach,visiblesun,yesclouds,8,"748.1481481481482,500",
,,,,,,,multiple,multiple,gr,f,22,,2021-09-01_13h26.17.052,online_experiment,2021.1.4,Win32,57.36905513,IwAR1pSn2KpX9iCLNhFqvD6Ujk1BOXhZiXE0Hh8rZY6_WoCvwR5-vFe0FkxWQ,FALSE,,"Mozilla/5.0 (Windows NT 10.0; Win64; x64) AppleWebKit/537.36 (KHTML, like Gecko) Chrome/92.0.4515.159 Safari/537.36",1366,663,1366,768,,,,,,,,4,4.5944,0.351432881,-0.411010558,1,0,0,next_trial_button,0,37,37,32,1,beach,invisiblesun,noclouds,4,"750,500",
,,,,,,,multiple,multiple,gr,f,22,,2021-09-01_13h26.17.052,online_experiment,2021.1.4,Win32,57.36905513,IwAR1pSn2KpX9iCLNhFqvD6Ujk1BOXhZiXE0Hh8rZY6_WoCvwR5-vFe0FkxWQ,FALSE,,"Mozilla/5.0 (Windows NT 10.0; Win64; x64) AppleWebKit/537.36 (KHTML, like Gecko) Chrome/92.0.4515.159 Safari/537.36",1366,663,1366,768,,,,,,,,7,3.0194,0.365007541,-0.414027149,1,0,0,next_trial_button,0,38,38,54,1,landscape,visiblesun,noclouds,6,"695.0043821209465,500",
,,,,,,,multiple,multiple,gr,f,22,,2021-09-01_13h26.17.052,online_experiment,2021.1.4,Win32,57.36905513,IwAR1pSn2KpX9iCLNhFqvD6Ujk1BOXhZiXE0Hh8rZY6_WoCvwR5-vFe0FkxWQ,FALSE,,"Mozilla/5.0 (Windows NT 10.0; Win64; x64) AppleWebKit/537.36 (KHTML, like Gecko) Chrome/92.0.4515.159 Safari/537.36",1366,663,1366,768,,,,,,,,9,2.0692,0.440422323,-0.432126697,1,0,0,next_trial_button,0,39,39,14,1,landscape,visiblesun,noclouds,1,"745.9919839679359,500",
,,,,,,,multiple,multiple,gr,f,22,,2021-09-01_13h26.17.052,online_experiment,2021.1.4,Win32,57.36905513,IwAR1pSn2KpX9iCLNhFqvD6Ujk1BOXhZiXE0Hh8rZY6_WoCvwR5-vFe0FkxWQ,FALSE,,"Mozilla/5.0 (Windows NT 10.0; Win64; x64) AppleWebKit/537.36 (KHTML, like Gecko) Chrome/92.0.4515.159 Safari/537.36",1366,663,1366,768,,,,,,,,10,1.9361,0.390648567,-0.432126697,1,0,0,next_trial_button,0,40,40,39,1,landscape,visiblesun,yesclouds,4,"749.7656982193065,500",
,,,,,,,multiple,multiple,gr,f,22,,2021-09-01_13h26.17.052,online_experiment,2021.1.4,Win32,57.36905513,IwAR1pSn2KpX9iCLNhFqvD6Ujk1BOXhZiXE0Hh8rZY6_WoCvwR5-vFe0FkxWQ,FALSE,,"Mozilla/5.0 (Windows NT 10.0; Win64; x64) AppleWebKit/537.36 (KHTML, like Gecko) Chrome/92.0.4515.159 Safari/537.36",1366,663,1366,768,,,,,,,,7,2.32,0.346907994,-0.430618401,1,0,0,next_trial_button,0,41,41,25,1,beach,invisiblesun,yesclouds,3,"750.4690431519699,500",
,,,,,,,multiple,multiple,gr,f,22,,2021-09-01_13h26.17.052,online_experiment,2021.1.4,Win32,57.36905513,IwAR1pSn2KpX9iCLNhFqvD6Ujk1BOXhZiXE0Hh8rZY6_WoCvwR5-vFe0FkxWQ,FALSE,,"Mozilla/5.0 (Windows NT 10.0; Win64; x64) AppleWebKit/537.36 (KHTML, like Gecko) Chrome/92.0.4515.159 Safari/537.36",1366,663,1366,768,,,,,,,,7,3.4864,0.345399698,-0.40346908,1,0,0,next_trial_button,0,42,42,61,1,landscape,invisiblesun,yesclouds,7,"500,500",
,,,,,,,multiple,multiple,gr,f,22,,2021-09-01_13h26.17.052,online_experiment,2021.1.4,Win32,57.36905513,IwAR1pSn2KpX9iCLNhFqvD6Ujk1BOXhZiXE0Hh8rZY6_WoCvwR5-vFe0FkxWQ,FALSE,,"Mozilla/5.0 (Windows NT 10.0; Win64; x64) AppleWebKit/537.36 (KHTML, like Gecko) Chrome/92.0.4515.159 Safari/537.36",1366,663,1366,768,,,,,,,,8,2.6977,0.428355958,-0.415535445,1,0,0,next_trial_button,0,43,43,9,1,beach,invisiblesun,yesclouds,1,"750,500",
,,,,,,,multiple,multiple,gr,f,22,,2021-09-01_13h26.17.052,online_experiment,2021.1.4,Win32,57.36905513,IwAR1pSn2KpX9iCLNhFqvD6Ujk1BOXhZiXE0Hh8rZY6_WoCvwR5-vFe0FkxWQ,FALSE,,"Mozilla/5.0 (Windows NT 10.0; Win64; x64) AppleWebKit/537.36 (KHTML, like Gecko) Chrome/92.0.4515.159 Safari/537.36",1366,663,1366,768,,,,,,,,2,4.614,0.407239819,-0.398944193,1,0,0,next_trial_button,0,44,44,44,1,landscape,invisiblesun,noclouds,5,"666.6666666666666,500",
,,,,,,,multiple,multiple,gr,f,22,,2021-09-01_13h26.17.052,online_experiment,2021.1.4,Win32,57.36905513,IwAR1pSn2KpX9iCLNhFqvD6Ujk1BOXhZiXE0Hh8rZY6_WoCvwR5-vFe0FkxWQ,FALSE,,"Mozilla/5.0 (Windows NT 10.0; Win64; x64) AppleWebKit/537.36 (KHTML, like Gecko) Chrome/92.0.4515.159 Safari/537.36",1366,663,1366,768,,,,,,,,8,3.1829,0.360482655,-0.409502262,1,0,0,next_trial_button,0,45,45,18,1,beach,visiblesun,noclouds,2,"666.6666666666666,500",
,,,,,,,multiple,multiple,gr,f,22,,2021-09-01_13h26.17.052,online_experiment,2021.1.4,Win32,57.36905513,IwAR1pSn2KpX9iCLNhFqvD6Ujk1BOXhZiXE0Hh8rZY6_WoCvwR5-vFe0FkxWQ,FALSE,,"Mozilla/5.0 (Windows NT 10.0; Win64; x64) AppleWebKit/537.36 (KHTML, like Gecko) Chrome/92.0.4515.159 Safari/537.36",1366,663,1366,768,,,,,,,,9,3.0548,0.357466063,-0.435143288,1,0,0,next_trial_button,0,46,46,2,1,beach,visiblesun,noclouds,0,"375,500",
,,,,,,,multiple,multiple,gr,f,22,,2021-09-01_13h26.17.052,online_experiment,2021.1.4,Win32,57.36905513,IwAR1pSn2KpX9iCLNhFqvD6Ujk1BOXhZiXE0Hh8rZY6_WoCvwR5-vFe0FkxWQ,FALSE,,"Mozilla/5.0 (Windows NT 10.0; Win64; x64) AppleWebKit/537.36 (KHTML, like Gecko) Chrome/92.0.4515.159 Safari/537.36",1366,663,1366,768,,,,,,,,2,3.0483,0.333333333,-0.376319759,1,0,0,next_trial_button,0,47,47,48,1,beach,invisiblesun,noclouds,6,"1028.5714285714284,500",
,,,,,,,multiple,multiple,gr,f,22,,2021-09-01_13h26.17.052,online_experiment,2021.1.4,Win32,57.36905513,IwAR1pSn2KpX9iCLNhFqvD6Ujk1BOXhZiXE0Hh8rZY6_WoCvwR5-vFe0FkxWQ,FALSE,,"Mozilla/5.0 (Windows NT 10.0; Win64; x64) AppleWebKit/537.36 (KHTML, like Gecko) Chrome/92.0.4515.159 Safari/537.36",1366,663,1366,768,,,,,,,,2,2.2819,0.429864253,-0.400452489,1,0,0,next_trial_button,0,48,48,70,1,landscape,visiblesun,noclouds,8,"666.6666666666666,500",
,,,,,,,multiple,multiple,gr,f,22,,2021-09-01_13h26.17.052,online_experiment,2021.1.4,Win32,57.36905513,IwAR1pSn2KpX9iCLNhFqvD6Ujk1BOXhZiXE0Hh8rZY6_WoCvwR5-vFe0FkxWQ,FALSE,,"Mozilla/5.0 (Windows NT 10.0; Win64; x64) AppleWebKit/537.36 (KHTML, like Gecko) Chrome/92.0.4515.159 Safari/537.36",1366,663,1366,768,,,,,,,,5,2.1236,0.402714932,-0.409502262,1,0,0,next_trial_button,0,49,49,30,1,landscape,visiblesun,noclouds,3,"346.3035019455253,500",
,,,,,,,multiple,multiple,gr,f,22,,2021-09-01_13h26.17.052,online_experiment,2021.1.4,Win32,57.36905513,IwAR1pSn2KpX9iCLNhFqvD6Ujk1BOXhZiXE0Hh8rZY6_WoCvwR5-vFe0FkxWQ,FALSE,,"Mozilla/5.0 (Windows NT 10.0; Win64; x64) AppleWebKit/537.36 (KHTML, like Gecko) Chrome/92.0.4515.159 Safari/537.36",1366,663,1366,768,,,,,,,,8,2.9392,0.414781297,-0.436651584,1,0,0,next_trial_button,0,50,50,19,1,beach,visiblesun,yesclouds,2,"770.1393095093882,500",
,,,,,,,multiple,multiple,gr,f,22,,2021-09-01_13h26.17.052,online_experiment,2021.1.4,Win32,57.36905513,IwAR1pSn2KpX9iCLNhFqvD6Ujk1BOXhZiXE0Hh8rZY6_WoCvwR5-vFe0FkxWQ,FALSE,,"Mozilla/5.0 (Windows NT 10.0; Win64; x64) AppleWebKit/537.36 (KHTML, like Gecko) Chrome/92.0.4515.159 Safari/537.36",1366,663,1366,768,,,,,,,,7,3.2516,0.303167421,-0.401960784,1,0,0,next_trial_button,0,51,51,42,1,beach,visiblesun,noclouds,5,"834.4594594594595,500",
,,,,,,,multiple,multiple,gr,f,22,,2021-09-01_13h26.17.052,online_experiment,2021.1.4,Win32,57.36905513,IwAR1pSn2KpX9iCLNhFqvD6Ujk1BOXhZiXE0Hh8rZY6_WoCvwR5-vFe0FkxWQ,FALSE,,"Mozilla/5.0 (Windows NT 10.0; Win64; x64) AppleWebKit/537.36 (KHTML, like Gecko) Chrome/92.0.4515.159 Safari/537.36",1366,663,1366,768,,,,,,,,1,2.1943,0.310708899,-0.400452489,1,0,0,next_trial_button,0,52,52,78,1,landscape,visiblesun,noclouds,9,"666.6666666666666,500",
,,,,,,,multiple,multiple,gr,f,22,,2021-09-01_13h26.17.052,online_experiment,2021.1.4,Win32,57.36905513,IwAR1pSn2KpX9iCLNhFqvD6Ujk1BOXhZiXE0Hh8rZY6_WoCvwR5-vFe0FkxWQ,FALSE,,"Mozilla/5.0 (Windows NT 10.0; Win64; x64) AppleWebKit/537.36 (KHTML, like Gecko) Chrome/92.0.4515.159 Safari/537.36",1366,663,1366,768,,,,,,,,7,1.7834,0.351432881,-0.438159879,1,0,0,next_trial_button,0,53,53,50,1,beach,visiblesun,noclouds,6,"666.6666666666666,500",
,,,,,,,multiple,multiple,gr,f,22,,2021-09-01_13h26.17.052,online_experiment,2021.1.4,Win32,57.36905513,IwAR1pSn2KpX9iCLNhFqvD6Ujk1BOXhZiXE0Hh8rZY6_WoCvwR5-vFe0FkxWQ,FALSE,,"Mozilla/5.0 (Windows NT 10.0; Win64; x64) AppleWebKit/537.36 (KHTML, like Gecko) Chrome/92.0.4515.159 Safari/537.36",1366,663,1366,768,,,,,,,,3,6.7337,0.374057315,-0.401960784,1,0,0,next_trial_button,0,54,54,72,1,beach,invisiblesun,noclouds,9,"888.8888888888888,500",
,,,,,,,multiple,multiple,gr,f,22,,2021-09-01_13h26.17.052,online_experiment,2021.1.4,Win32,57.36905513,IwAR1pSn2KpX9iCLNhFqvD6Ujk1BOXhZiXE0Hh8rZY6_WoCvwR5-vFe0FkxWQ,FALSE,,"Mozilla/5.0 (Windows NT 10.0; Win64; x64) AppleWebKit/537.36 (KHTML, like Gecko) Chrome/92.0.4515.159 Safari/537.36",1366,663,1366,768,,,,,,,,3,2.4866,0.42081448,-0.420060332,1,0,0,next_trial_button,0,55,55,79,1,landscape,visiblesun,yesclouds,9,"1028.5714285714284,500",
,,,,,,,multiple,multiple,gr,f,22,,2021-09-01_13h26.17.052,online_experiment,2021.1.4,Win32,57.36905513,IwAR1pSn2KpX9iCLNhFqvD6Ujk1BOXhZiXE0Hh8rZY6_WoCvwR5-vFe0FkxWQ,FALSE,,"Mozilla/5.0 (Windows NT 10.0; Win64; x64) AppleWebKit/537.36 (KHTML, like Gecko) Chrome/92.0.4515.159 Safari/537.36",1366,663,1366,768,,,,,,,,8,2.5395,0.481146305,-0.417043741,1,0,0,next_trial_button,0,56,56,17,1,beach,invisiblesun,yesclouds,2,"684.8635235732011,500",
,,,,,,,multiple,multiple,gr,f,22,,2021-09-01_13h26.17.052,online_experiment,2021.1.4,Win32,57.36905513,IwAR1pSn2KpX9iCLNhFqvD6Ujk1BOXhZiXE0Hh8rZY6_WoCvwR5-vFe0FkxWQ,FALSE,,"Mozilla/5.0 (Windows NT 10.0; Win64; x64) AppleWebKit/537.36 (KHTML, like Gecko) Chrome/92.0.4515.159 Safari/537.36",1366,663,1366,768,,,,,,,,8,1.7844,0.426847662,-0.406485671,1,0,0,next_trial_button,0,57,57,55,1,landscape,visiblesun,yesclouds,6,"749.8819083608881,500",
,,,,,,,multiple,multiple,gr,f,22,,2021-09-01_13h26.17.052,online_experiment,2021.1.4,Win32,57.36905513,IwAR1pSn2KpX9iCLNhFqvD6Ujk1BOXhZiXE0Hh8rZY6_WoCvwR5-vFe0FkxWQ,FALSE,,"Mozilla/5.0 (Windows NT 10.0; Win64; x64) AppleWebKit/537.36 (KHTML, like Gecko) Chrome/92.0.4515.159 Safari/537.36",1366,663,1366,768,,,,,,,,6,2.147,0.384615385,-0.397435897,1,0,0,next_trial_button,0,58,58,40,1,beach,invisiblesun,noclouds,5,"1028.5714285714284,500",
,,,,,,,multiple,multiple,gr,f,22,,2021-09-01_13h26.17.052,online_experiment,2021.1.4,Win32,57.36905513,IwAR1pSn2KpX9iCLNhFqvD6Ujk1BOXhZiXE0Hh8rZY6_WoCvwR5-vFe0FkxWQ,FALSE,,"Mozilla/5.0 (Windows NT 10.0; Win64; x64) AppleWebKit/537.36 (KHTML, like Gecko) Chrome/92.0.4515.159 Safari/537.36",1366,663,1366,768,,,,,,,,9,2.1376,0.425339367,-0.407993967,1,0,0,next_trial_button,0,59,59,49,1,beach,invisiblesun,yesclouds,6,"858.4474885844749,500",
,,,,,,,multiple,multiple,gr,f,22,,2021-09-01_13h26.17.052,online_experiment,2021.1.4,Win32,57.36905513,IwAR1pSn2KpX9iCLNhFqvD6Ujk1BOXhZiXE0Hh8rZY6_WoCvwR5-vFe0FkxWQ,FALSE,,"Mozilla/5.0 (Windows NT 10.0; Win64; x64) AppleWebKit/537.36 (KHTML, like Gecko) Chrome/92.0.4515.159 Safari/537.36",1366,663,1366,768,,,,,,,,10,5.6875,0.343891403,-0.417043741,1,0,0,next_trial_button,0,60,60,11,1,beach,visiblesun,yesclouds,1,"989.8132427843803,500",
,,,,,,,multiple,multiple,gr,f,22,,2021-09-01_13h26.17.052,online_experiment,2021.1.4,Win32,57.36905513,IwAR1pSn2KpX9iCLNhFqvD6Ujk1BOXhZiXE0Hh8rZY6_WoCvwR5-vFe0FkxWQ,FALSE,,"Mozilla/5.0 (Windows NT 10.0; Win64; x64) AppleWebKit/537.36 (KHTML, like Gecko) Chrome/92.0.4515.159 Safari/537.36",1366,663,1366,768,,,,,,,,9,2.4238,0.334841629,-0.406485671,1,0,0,next_trial_button,0,61,61,53,1,landscape,invisiblesun,yesclouds,6,"750.0695023630803,500",
,,,,,,,multiple,multiple,gr,f,22,,2021-09-01_13h26.17.052,online_experiment,2021.1.4,Win32,57.36905513,IwAR1pSn2KpX9iCLNhFqvD6Ujk1BOXhZiXE0Hh8rZY6_WoCvwR5-vFe0FkxWQ,FALSE,,"Mozilla/5.0 (Windows NT 10.0; Win64; x64) AppleWebKit/537.36 (KHTML, like Gecko) Chrome/92.0.4515.159 Safari/537.36",1366,663,1366,768,,,,,,,,10,1.8352,0.402714932,-0.409502262,1,0,0,next_trial_button,0,62,62,1,1,beach,invisiblesun,yesclouds,0,"666.6666666666666,500",
,,,,,,,multiple,multiple,gr,f,22,,2021-09-01_13h26.17.052,online_experiment,2021.1.4,Win32,57.36905513,IwAR1pSn2KpX9iCLNhFqvD6Ujk1BOXhZiXE0Hh8rZY6_WoCvwR5-vFe0FkxWQ,FALSE,,"Mozilla/5.0 (Windows NT 10.0; Win64; x64) AppleWebKit/537.36 (KHTML, like Gecko) Chrome/92.0.4515.159 Safari/537.36",1366,663,1366,768,,,,,,,,5,2.3639,0.426847662,-0.406485671,1,0,0,next_trial_button,0,63,63,28,1,landscape,invisiblesun,noclouds,3,"888.8888888888888,500",
,,,,,,,multiple,multiple,gr,f,22,,2021-09-01_13h26.17.052,online_experiment,2021.1.4,Win32,57.36905513,IwAR1pSn2KpX9iCLNhFqvD6Ujk1BOXhZiXE0Hh8rZY6_WoCvwR5-vFe0FkxWQ,FALSE,,"Mozilla/5.0 (Windows NT 10.0; Win64; x64) AppleWebKit/537.36 (KHTML, like Gecko) Chrome/92.0.4515.159 Safari/537.36",1366,663,1366,768,,,,,,,,8,1.9809,0.352941176,-0.414027149,1,0,0,next_trial_button,0,64,64,51,1,beach,visiblesun,yesclouds,6,"657.1279916753382,500",
,,,,,,,multiple,multiple,gr,f,22,,2021-09-01_13h26.17.052,online_experiment,2021.1.4,Win32,57.36905513,IwAR1pSn2KpX9iCLNhFqvD6Ujk1BOXhZiXE0Hh8rZY6_WoCvwR5-vFe0FkxWQ,FALSE,,"Mozilla/5.0 (Windows NT 10.0; Win64; x64) AppleWebKit/537.36 (KHTML, like Gecko) Chrome/92.0.4515.159 Safari/537.36",1366,663,1366,768,,,,,,,,9,3.4722,0.297134238,-0.409502262,1,0,0,next_trial_button,0,65,65,29,1,landscape,invisiblesun,yesclouds,3,"749.8660953401178,500",
,,,,,,,multiple,multiple,gr,f,22,,2021-09-01_13h26.17.052,online_experiment,2021.1.4,Win32,57.36905513,IwAR1pSn2KpX9iCLNhFqvD6Ujk1BOXhZiXE0Hh8rZY6_WoCvwR5-vFe0FkxWQ,FALSE,,"Mozilla/5.0 (Windows NT 10.0; Win64; x64) AppleWebKit/537.36 (KHTML, like Gecko) Chrome/92.0.4515.159 Safari/537.36",1366,663,1366,768,,,,,,,,8,14.9306,0.384615385,-0.444193062,1,0,0,next_trial_button,0,66,66,74,1,beach,visiblesun,noclouds,9,"1028.5714285714284,500",
,,,,,,,multiple,multiple,gr,f,22,,2021-09-01_13h26.17.052,online_experiment,2021.1.4,Win32,57.36905513,IwAR1pSn2KpX9iCLNhFqvD6Ujk1BOXhZiXE0Hh8rZY6_WoCvwR5-vFe0FkxWQ,FALSE,,"Mozilla/5.0 (Windows NT 10.0; Win64; x64) AppleWebKit/537.36 (KHTML, like Gecko) Chrome/92.0.4515.159 Safari/537.36",1366,663,1366,768,,,,,,,,10,1.9385,0.43438914,-0.417043741,1,0,0,next_trial_button,0,67,67,37,1,landscape,invisiblesun,yesclouds,4,"669.4214876033058,500",
,,,,,,,multiple,multiple,gr,f,22,,2021-09-01_13h26.17.052,online_experiment,2021.1.4,Win32,57.36905513,IwAR1pSn2KpX9iCLNhFqvD6Ujk1BOXhZiXE0Hh8rZY6_WoCvwR5-vFe0FkxWQ,FALSE,,"Mozilla/5.0 (Windows NT 10.0; Win64; x64) AppleWebKit/537.36 (KHTML, like Gecko) Chrome/92.0.4515.159 Safari/537.36",1366,663,1366,768,,,,,,,,9,1.9272,0.381598793,-0.409502262,1,0,0,next_trial_button,0,68,68,43,1,beach,visiblesun,yesclouds,5,"750,500",
,,,,,,,multiple,multiple,gr,f,22,,2021-09-01_13h26.17.052,online_experiment,2021.1.4,Win32,57.36905513,IwAR1pSn2KpX9iCLNhFqvD6Ujk1BOXhZiXE0Hh8rZY6_WoCvwR5-vFe0FkxWQ,FALSE,,"Mozilla/5.0 (Windows NT 10.0; Win64; x64) AppleWebKit/537.36 (KHTML, like Gecko) Chrome/92.0.4515.159 Safari/537.36",1366,663,1366,768,,,,,,,,8,4.2947,0.44494721,-0.430618401,1,0,0,next_trial_button,0,69,69,73,1,beach,invisiblesun,yesclouds,9,"1028.5714285714284,500",
,,,,,,,multiple,multiple,gr,f,22,,2021-09-01_13h26.17.052,online_experiment,2021.1.4,Win32,57.36905513,IwAR1pSn2KpX9iCLNhFqvD6Ujk1BOXhZiXE0Hh8rZY6_WoCvwR5-vFe0FkxWQ,FALSE,,"Mozilla/5.0 (Windows NT 10.0; Win64; x64) AppleWebKit/537.36 (KHTML, like Gecko) Chrome/92.0.4515.159 Safari/537.36",1366,663,1366,768,,,,,,,,9,3.474,0.432880845,-0.386877828,1,0,0,next_trial_button,0,70,70,7,1,landscape,visiblesun,yesclouds,0,"743.421052631579,500",
,,,,,,,multiple,multiple,gr,f,22,,2021-09-01_13h26.17.052,online_experiment,2021.1.4,Win32,57.36905513,IwAR1pSn2KpX9iCLNhFqvD6Ujk1BOXhZiXE0Hh8rZY6_WoCvwR5-vFe0FkxWQ,FALSE,,"Mozilla/5.0 (Windows NT 10.0; Win64; x64) AppleWebKit/537.36 (KHTML, like Gecko) Chrome/92.0.4515.159 Safari/537.36",1366,663,1366,768,,,,,,,,6,11.9258,0.389140271,-0.409502262,1,0,0,next_trial_button,0,71,71,64,1,beach,invisiblesun,noclouds,8,"1028.5714285714284,500",
,,,,,,,multiple,multiple,gr,f,22,,2021-09-01_13h26.17.052,online_experiment,2021.1.4,Win32,57.36905513,IwAR1pSn2KpX9iCLNhFqvD6Ujk1BOXhZiXE0Hh8rZY6_WoCvwR5-vFe0FkxWQ,FALSE,,"Mozilla/5.0 (Windows NT 10.0; Win64; x64) AppleWebKit/537.36 (KHTML, like Gecko) Chrome/92.0.4515.159 Safari/537.36",1366,663,1366,768,,,,,,,,9,2.9852,0.45852187,-0.391402715,1,0,0,next_trial_button,0,72,72,62,1,landscape,visiblesun,noclouds,7,"417.42389822807814,500",
,,,,,,,multiple,multiple,gr,f,22,,2021-09-01_13h26.17.052,online_experiment,2021.1.4,Win32,57.36905513,IwAR1pSn2KpX9iCLNhFqvD6Ujk1BOXhZiXE0Hh8rZY6_WoCvwR5-vFe0FkxWQ,FALSE,,"Mozilla/5.0 (Windows NT 10.0; Win64; x64) AppleWebKit/537.36 (KHTML, like Gecko) Chrome/92.0.4515.159 Safari/537.36",1366,663,1366,768,,,,,,,,6,4.0252,0.309200603,-0.391402715,1,0,0,next_trial_button,0,73,73,63,1,landscape,visiblesun,yesclouds,7,"331.94444444444446,500",
,,,,,,,multiple,multiple,gr,f,22,,2021-09-01_13h26.17.052,online_experiment,2021.1.4,Win32,57.36905513,IwAR1pSn2KpX9iCLNhFqvD6Ujk1BOXhZiXE0Hh8rZY6_WoCvwR5-vFe0FkxWQ,FALSE,,"Mozilla/5.0 (Windows NT 10.0; Win64; x64) AppleWebKit/537.36 (KHTML, like Gecko) Chrome/92.0.4515.159 Safari/537.36",1366,663,1366,768,,,,,,,,7,6.8975,0.374057315,-0.433634992,1,0,0,next_trial_button,0,74,74,57,1,beach,invisiblesun,yesclouds,7,"749.707488299532,500",
,,,,,,,multiple,multiple,gr,f,22,,2021-09-01_13h26.17.052,online_experiment,2021.1.4,Win32,57.36905513,IwAR1pSn2KpX9iCLNhFqvD6Ujk1BOXhZiXE0Hh8rZY6_WoCvwR5-vFe0FkxWQ,FALSE,,"Mozilla/5.0 (Windows NT 10.0; Win64; x64) AppleWebKit/537.36 (KHTML, like Gecko) Chrome/92.0.4515.159 Safari/537.36",1366,663,1366,768,,,,,,,,9,2.328,0.44494721,-0.418552036,1,0,0,next_trial_button,0,75,75,12,1,landscape,invisiblesun,noclouds,1,"666.6666666666666,500",
,,,,,,,multiple,multiple,gr,f,22,,2021-09-01_13h26.17.052,online_experiment,2021.1.4,Win32,57.36905513,IwAR1pSn2KpX9iCLNhFqvD6Ujk1BOXhZiXE0Hh8rZY6_WoCvwR5-vFe0FkxWQ,FALSE,,"Mozilla/5.0 (Windows NT 10.0; Win64; x64) AppleWebKit/537.36 (KHTML, like Gecko) Chrome/92.0.4515.159 Safari/537.36",1366,663,1366,768,,,,,,,,9,1.9898,0.435897436,-0.421568627,1,0,0,next_trial_button,0,76,76,34,1,beach,visiblesun,noclouds,4,"749.6251874062968,500",
,,,,,,,multiple,multiple,gr,f,22,,2021-09-01_13h26.17.052,online_experiment,2021.1.4,Win32,57.36905513,IwAR1pSn2KpX9iCLNhFqvD6Ujk1BOXhZiXE0Hh8rZY6_WoCvwR5-vFe0FkxWQ,FALSE,,"Mozilla/5.0 (Windows NT 10.0; Win64; x64) AppleWebKit/537.36 (KHTML, like Gecko) Chrome/92.0.4515.159 Safari/537.36",1366,663,1366,768,,,,,,,,9,1.7707,0.419306184,-0.432126697,1,0,0,next_trial_button,0,77,77,31,1,landscape,visiblesun,yesclouds,3,"638.0622837370242,500",
,,,,,,,multiple,multiple,gr,f,22,,2021-09-01_13h26.17.052,online_experiment,2021.1.4,Win32,57.36905513,IwAR1pSn2KpX9iCLNhFqvD6Ujk1BOXhZiXE0Hh8rZY6_WoCvwR5-vFe0FkxWQ,FALSE,,"Mozilla/5.0 (Windows NT 10.0; Win64; x64) AppleWebKit/537.36 (KHTML, like Gecko) Chrome/92.0.4515.159 Safari/537.36",1366,663,1366,768,,,,,,,,10,2.4293,0.401206637,-0.439668175,1,0,0,next_trial_button,0,78,78,45,1,landscape,invisiblesun,yesclouds,5,"749.6251874062968,500",
,,,,,,,multiple,multiple,gr,f,22,,2021-09-01_13h26.17.052,online_experiment,2021.1.4,Win32,57.36905513,IwAR1pSn2KpX9iCLNhFqvD6Ujk1BOXhZiXE0Hh8rZY6_WoCvwR5-vFe0FkxWQ,FALSE,,"Mozilla/5.0 (Windows NT 10.0; Win64; x64) AppleWebKit/537.36 (KHTML, like Gecko) Chrome/92.0.4515.159 Safari/537.36",1366,663,1366,768,,,,,,,,7,3.4978,0.390648567,-0.423076923,1,0,0,next_trial_button,0,79,79,77,1,landscape,invisiblesun,yesclouds,9,"888.8888888888888,500",
,,,,,,,multiple,multiple,gr,f,22,,2021-09-01_13h26.17.052,online_experiment,2021.1.4,Win32,57.36905513,IwAR1pSn2KpX9iCLNhFqvD6Ujk1BOXhZiXE0Hh8rZY6_WoCvwR5-vFe0FkxWQ,FALSE,,"Mozilla/5.0 (Windows NT 10.0; Win64; x64) AppleWebKit/537.36 (KHTML, like Gecko) Chrome/92.0.4515.159 Safari/537.36",1366,663,1366,768,,,,,,,,,,,,,,,,,,,,,,,,,"888.8888888888888,500",687.1121
