language_mouse.x,language_mouse.y,language_mouse.leftButton,language_mouse.midButton,language_mouse.rightButton,language_mouse.time,language_mouse.clicked_name,nationality,mother_tongue,homeland,gender,age,email,date,expName,psychopyVersion,OS,frameRate,cancel_experiment,cancel_reasons,client_agent_information,windowWidth,windowHeight,xRes,yRes,start_exp_mouse.x,start_exp_mouse.y,start_exp_mouse.leftButton,start_exp_mouse.midButton,start_exp_mouse.rightButton,start_exp_mouse.time,start_exp_mouse.clicked_name,rating_slider.response,rating_slider.rt,next_trial_mouse.x,next_trial_mouse.y,next_trial_mouse.leftButton,next_trial_mouse.midButton,next_trial_mouse.rightButton,next_trial_mouse.clicked_name,trials.thisRepN,trials.thisTrialN,trials.thisN,trials.thisIndex,trials.ran,environment,sunVisibility,cloudVisibility,imageId,imgSize,globalClockTime
-0.353051215,-0.197708333,1,0,0,5.3995,de_flag,de,de,de,f,25,,2021-08-07_18h45.41.256,online_experiment,2021.1.4,MacIntel,59.99880002,FALSE,,"Mozilla/5.0 (Macintosh; Intel Mac OS X 10_14_6) AppleWebKit/537.36 (KHTML, like Gecko) Chrome/92.0.4515.107 Safari/537.36",1440,740,1440,900,,,,,,,,,,,,,,,,,,,,,,,,,,
,,,,,,,de,de,de,f,25,,2021-08-07_18h45.41.256,online_experiment,2021.1.4,MacIntel,59.99880002,FALSE,,"Mozilla/5.0 (Macintosh; Intel Mac OS X 10_14_6) AppleWebKit/537.36 (KHTML, like Gecko) Chrome/92.0.4515.107 Safari/537.36",1440,740,1440,900,0.074696181,-0.374800347,1,0,0,41.1445,start_button,4,26.5046,0.395069444,-0.424331597,1,0,0,next_trial_button,0,0,0,32,1,beach,invisiblesun,noclouds,4,"750,500",
,,,,,,,de,de,de,f,25,,2021-08-07_18h45.41.256,online_experiment,2021.1.4,MacIntel,59.99880002,FALSE,,"Mozilla/5.0 (Macintosh; Intel Mac OS X 10_14_6) AppleWebKit/537.36 (KHTML, like Gecko) Chrome/92.0.4515.107 Safari/537.36",1440,740,1440,900,,,,,,,,8,7.7255,0.378706597,-0.390494792,1,0,0,next_trial_button,0,1,1,23,1,landscape,visiblesun,yesclouds,2,"767.97829036635,500",
,,,,,,,de,de,de,f,25,,2021-08-07_18h45.41.256,online_experiment,2021.1.4,MacIntel,59.99880002,FALSE,,"Mozilla/5.0 (Macintosh; Intel Mac OS X 10_14_6) AppleWebKit/537.36 (KHTML, like Gecko) Chrome/92.0.4515.107 Safari/537.36",1440,740,1440,900,,,,,,,,6,3.0473,0.438515625,-0.413472222,1,0,0,next_trial_button,0,2,2,31,1,landscape,visiblesun,yesclouds,3,"638.0622837370242,500",
,,,,,,,de,de,de,f,25,,2021-08-07_18h45.41.256,online_experiment,2021.1.4,MacIntel,59.99880002,FALSE,,"Mozilla/5.0 (Macintosh; Intel Mac OS X 10_14_6) AppleWebKit/537.36 (KHTML, like Gecko) Chrome/92.0.4515.107 Safari/537.36",1440,740,1440,900,,,,,,,,5,2.6944,0.389752604,-0.400924479,1,0,0,next_trial_button,0,3,3,66,1,beach,visiblesun,noclouds,8,"1028.5714285714284,500",
,,,,,,,de,de,de,f,25,,2021-08-07_18h45.41.256,online_experiment,2021.1.4,MacIntel,59.99880002,FALSE,,"Mozilla/5.0 (Macintosh; Intel Mac OS X 10_14_6) AppleWebKit/537.36 (KHTML, like Gecko) Chrome/92.0.4515.107 Safari/537.36",1440,740,1440,900,,,,,,,,8,2.6784,0.376844618,-0.415069444,1,0,0,next_trial_button,0,4,4,37,1,landscape,invisiblesun,yesclouds,4,"669.4214876033058,500",
,,,,,,,de,de,de,f,25,,2021-08-07_18h45.41.256,online_experiment,2021.1.4,MacIntel,59.99880002,FALSE,,"Mozilla/5.0 (Macintosh; Intel Mac OS X 10_14_6) AppleWebKit/537.36 (KHTML, like Gecko) Chrome/92.0.4515.107 Safari/537.36",1440,740,1440,900,,,,,,,,8,2.5413,0.392048611,-0.430243056,1,0,0,next_trial_button,0,5,5,38,1,landscape,visiblesun,noclouds,4,"733.3333333333333,500",
,,,,,,,de,de,de,f,25,,2021-08-07_18h45.41.256,online_experiment,2021.1.4,MacIntel,59.99880002,FALSE,,"Mozilla/5.0 (Macintosh; Intel Mac OS X 10_14_6) AppleWebKit/537.36 (KHTML, like Gecko) Chrome/92.0.4515.107 Safari/537.36",1440,740,1440,900,,,,,,,,7,3.1746,0.494201389,-0.410746528,1,0,0,next_trial_button,0,6,6,39,1,landscape,visiblesun,yesclouds,4,"749.7656982193065,500",
,,,,,,,de,de,de,f,25,,2021-08-07_18h45.41.256,online_experiment,2021.1.4,MacIntel,59.99880002,FALSE,,"Mozilla/5.0 (Macintosh; Intel Mac OS X 10_14_6) AppleWebKit/537.36 (KHTML, like Gecko) Chrome/92.0.4515.107 Safari/537.36",1440,740,1440,900,,,,,,,,2,2.4761,0.424444444,-0.415082465,1,0,0,next_trial_button,0,7,7,60,1,landscape,invisiblesun,noclouds,7,"666.7268134247564,500",
,,,,,,,de,de,de,f,25,,2021-08-07_18h45.41.256,online_experiment,2021.1.4,MacIntel,59.99880002,FALSE,,"Mozilla/5.0 (Macintosh; Intel Mac OS X 10_14_6) AppleWebKit/537.36 (KHTML, like Gecko) Chrome/92.0.4515.107 Safari/537.36",1440,740,1440,900,,,,,,,,7,2.7111,0.389392361,-0.420993924,1,0,0,next_trial_button,0,8,8,2,1,beach,visiblesun,noclouds,0,"375,500",
,,,,,,,de,de,de,f,25,,2021-08-07_18h45.41.256,online_experiment,2021.1.4,MacIntel,59.99880002,FALSE,,"Mozilla/5.0 (Macintosh; Intel Mac OS X 10_14_6) AppleWebKit/537.36 (KHTML, like Gecko) Chrome/92.0.4515.107 Safari/537.36",1440,740,1440,900,,,,,,,,9,2.2054,0.426145833,-0.391844618,1,0,0,next_trial_button,0,9,9,36,1,landscape,invisiblesun,noclouds,4,"281.25,500",
,,,,,,,de,de,de,f,25,,2021-08-07_18h45.41.256,online_experiment,2021.1.4,MacIntel,59.99880002,FALSE,,"Mozilla/5.0 (Macintosh; Intel Mac OS X 10_14_6) AppleWebKit/537.36 (KHTML, like Gecko) Chrome/92.0.4515.107 Safari/537.36",1440,740,1440,900,,,,,,,,10,2.0434,0.416215278,-0.408250868,1,0,0,next_trial_button,0,10,10,1,1,beach,invisiblesun,yesclouds,0,"666.6666666666666,500",
,,,,,,,de,de,de,f,25,,2021-08-07_18h45.41.256,online_experiment,2021.1.4,MacIntel,59.99880002,FALSE,,"Mozilla/5.0 (Macintosh; Intel Mac OS X 10_14_6) AppleWebKit/537.36 (KHTML, like Gecko) Chrome/92.0.4515.107 Safari/537.36",1440,740,1440,900,,,,,,,,8,2.1104,0.367760417,-0.407278646,1,0,0,next_trial_button,0,11,11,46,1,landscape,visiblesun,noclouds,5,"750,500",
,,,,,,,de,de,de,f,25,,2021-08-07_18h45.41.256,online_experiment,2021.1.4,MacIntel,59.99880002,FALSE,,"Mozilla/5.0 (Macintosh; Intel Mac OS X 10_14_6) AppleWebKit/537.36 (KHTML, like Gecko) Chrome/92.0.4515.107 Safari/537.36",1440,740,1440,900,,,,,,,,8,2.7613,0.383710938,-0.392170139,1,0,0,next_trial_button,0,12,12,49,1,beach,invisiblesun,yesclouds,6,"858.4474885844749,500",
,,,,,,,de,de,de,f,25,,2021-08-07_18h45.41.256,online_experiment,2021.1.4,MacIntel,59.99880002,FALSE,,"Mozilla/5.0 (Macintosh; Intel Mac OS X 10_14_6) AppleWebKit/537.36 (KHTML, like Gecko) Chrome/92.0.4515.107 Safari/537.36",1440,740,1440,900,,,,,,,,5,2.7081,0.395247396,-0.395811632,1,0,0,next_trial_button,0,13,13,30,1,landscape,visiblesun,noclouds,3,"346.3035019455253,500",
,,,,,,,de,de,de,f,25,,2021-08-07_18h45.41.256,online_experiment,2021.1.4,MacIntel,59.99880002,FALSE,,"Mozilla/5.0 (Macintosh; Intel Mac OS X 10_14_6) AppleWebKit/537.36 (KHTML, like Gecko) Chrome/92.0.4515.107 Safari/537.36",1440,740,1440,900,,,,,,,,8,2.463,0.390234375,-0.426888021,1,0,0,next_trial_button,0,14,14,75,1,beach,visiblesun,yesclouds,9,"1029.6010296010297,500",
,,,,,,,de,de,de,f,25,,2021-08-07_18h45.41.256,online_experiment,2021.1.4,MacIntel,59.99880002,FALSE,,"Mozilla/5.0 (Macintosh; Intel Mac OS X 10_14_6) AppleWebKit/537.36 (KHTML, like Gecko) Chrome/92.0.4515.107 Safari/537.36",1440,740,1440,900,,,,,,,,8,1.9117,0.373107639,-0.424105903,1,0,0,next_trial_button,0,15,15,65,1,beach,invisiblesun,yesclouds,8,"750,500",
,,,,,,,de,de,de,f,25,,2021-08-07_18h45.41.256,online_experiment,2021.1.4,MacIntel,59.99880002,FALSE,,"Mozilla/5.0 (Macintosh; Intel Mac OS X 10_14_6) AppleWebKit/537.36 (KHTML, like Gecko) Chrome/92.0.4515.107 Safari/537.36",1440,740,1440,900,,,,,,,,4,2.2777,0.378016493,-0.426579861,1,0,0,next_trial_button,0,16,16,10,1,beach,visiblesun,noclouds,1,"747.0261697065821,500",
,,,,,,,de,de,de,f,25,,2021-08-07_18h45.41.256,online_experiment,2021.1.4,MacIntel,59.99880002,FALSE,,"Mozilla/5.0 (Macintosh; Intel Mac OS X 10_14_6) AppleWebKit/537.36 (KHTML, like Gecko) Chrome/92.0.4515.107 Safari/537.36",1440,740,1440,900,,,,,,,,7,2.9399,0.439114583,-0.414483507,1,0,0,next_trial_button,0,17,17,12,1,landscape,invisiblesun,noclouds,1,"666.6666666666666,500",
,,,,,,,de,de,de,f,25,,2021-08-07_18h45.41.256,online_experiment,2021.1.4,MacIntel,59.99880002,FALSE,,"Mozilla/5.0 (Macintosh; Intel Mac OS X 10_14_6) AppleWebKit/537.36 (KHTML, like Gecko) Chrome/92.0.4515.107 Safari/537.36",1440,740,1440,900,,,,,,,,8,1.9204,0.442990451,-0.392899306,1,0,0,next_trial_button,0,18,18,18,1,beach,visiblesun,noclouds,2,"666.6666666666666,500",
,,,,,,,de,de,de,f,25,,2021-08-07_18h45.41.256,online_experiment,2021.1.4,MacIntel,59.99880002,FALSE,,"Mozilla/5.0 (Macintosh; Intel Mac OS X 10_14_6) AppleWebKit/537.36 (KHTML, like Gecko) Chrome/92.0.4515.107 Safari/537.36",1440,740,1440,900,,,,,,,,8,2.0315,0.391462674,-0.41593316,1,0,0,next_trial_button,0,19,19,11,1,beach,visiblesun,yesclouds,1,"989.8132427843803,500",
,,,,,,,de,de,de,f,25,,2021-08-07_18h45.41.256,online_experiment,2021.1.4,MacIntel,59.99880002,FALSE,,"Mozilla/5.0 (Macintosh; Intel Mac OS X 10_14_6) AppleWebKit/537.36 (KHTML, like Gecko) Chrome/92.0.4515.107 Safari/537.36",1440,740,1440,900,,,,,,,,5,2.6296,0.405099826,-0.396241319,1,0,0,next_trial_button,0,20,20,54,1,landscape,visiblesun,noclouds,6,"695.0043821209465,500",
,,,,,,,de,de,de,f,25,,2021-08-07_18h45.41.256,online_experiment,2021.1.4,MacIntel,59.99880002,FALSE,,"Mozilla/5.0 (Macintosh; Intel Mac OS X 10_14_6) AppleWebKit/537.36 (KHTML, like Gecko) Chrome/92.0.4515.107 Safari/537.36",1440,740,1440,900,,,,,,,,5,2.4934,0.334748264,-0.420295139,1,0,0,next_trial_button,0,21,21,22,1,landscape,visiblesun,noclouds,2,"749.3333333333333,500",
,,,,,,,de,de,de,f,25,,2021-08-07_18h45.41.256,online_experiment,2021.1.4,MacIntel,59.99880002,FALSE,,"Mozilla/5.0 (Macintosh; Intel Mac OS X 10_14_6) AppleWebKit/537.36 (KHTML, like Gecko) Chrome/92.0.4515.107 Safari/537.36",1440,740,1440,900,,,,,,,,6,2.0923,0.447092014,-0.40765191,1,0,0,next_trial_button,0,22,22,0,1,beach,invisiblesun,noclouds,0,"750,500",
,,,,,,,de,de,de,f,25,,2021-08-07_18h45.41.256,online_experiment,2021.1.4,MacIntel,59.99880002,FALSE,,"Mozilla/5.0 (Macintosh; Intel Mac OS X 10_14_6) AppleWebKit/537.36 (KHTML, like Gecko) Chrome/92.0.4515.107 Safari/537.36",1440,740,1440,900,,,,,,,,8,2.0616,0.338337674,-0.408971354,1,0,0,next_trial_button,0,23,23,27,1,beach,visiblesun,yesclouds,3,"752.8089887640449,500",
,,,,,,,de,de,de,f,25,,2021-08-07_18h45.41.256,online_experiment,2021.1.4,MacIntel,59.99880002,FALSE,,"Mozilla/5.0 (Macintosh; Intel Mac OS X 10_14_6) AppleWebKit/537.36 (KHTML, like Gecko) Chrome/92.0.4515.107 Safari/537.36",1440,740,1440,900,,,,,,,,7,2.3153,0.377695312,-0.413454861,1,0,0,next_trial_button,0,24,24,3,1,beach,visiblesun,yesclouds,0,"1152.5122276567363,500",
,,,,,,,de,de,de,f,25,,2021-08-07_18h45.41.256,online_experiment,2021.1.4,MacIntel,59.99880002,FALSE,,"Mozilla/5.0 (Macintosh; Intel Mac OS X 10_14_6) AppleWebKit/537.36 (KHTML, like Gecko) Chrome/92.0.4515.107 Safari/537.36",1440,740,1440,900,,,,,,,,6,2.7643,0.383138021,-0.410069444,1,0,0,next_trial_button,0,25,25,61,1,landscape,invisiblesun,yesclouds,7,"500,500",
,,,,,,,de,de,de,f,25,,2021-08-07_18h45.41.256,online_experiment,2021.1.4,MacIntel,59.99880002,FALSE,,"Mozilla/5.0 (Macintosh; Intel Mac OS X 10_14_6) AppleWebKit/537.36 (KHTML, like Gecko) Chrome/92.0.4515.107 Safari/537.36",1440,740,1440,900,,,,,,,,3,3.2142,0.412217882,-0.425525174,1,0,0,next_trial_button,0,26,26,28,1,landscape,invisiblesun,noclouds,3,"888.8888888888888,500",
,,,,,,,de,de,de,f,25,,2021-08-07_18h45.41.256,online_experiment,2021.1.4,MacIntel,59.99880002,FALSE,,"Mozilla/5.0 (Macintosh; Intel Mac OS X 10_14_6) AppleWebKit/537.36 (KHTML, like Gecko) Chrome/92.0.4515.107 Safari/537.36",1440,740,1440,900,,,,,,,,6,3.8258,0.398363715,-0.431749132,1,0,0,next_trial_button,0,27,27,13,1,landscape,invisiblesun,yesclouds,1,"783.1192660550458,500",
,,,,,,,de,de,de,f,25,,2021-08-07_18h45.41.256,online_experiment,2021.1.4,MacIntel,59.99880002,FALSE,,"Mozilla/5.0 (Macintosh; Intel Mac OS X 10_14_6) AppleWebKit/537.36 (KHTML, like Gecko) Chrome/92.0.4515.107 Safari/537.36",1440,740,1440,900,,,,,,,,6,2.9067,0.412777778,-0.409592014,1,0,0,next_trial_button,0,28,28,5,1,landscape,invisiblesun,yesclouds,0,"750.4690431519699,500",
,,,,,,,de,de,de,f,25,,2021-08-07_18h45.41.256,online_experiment,2021.1.4,MacIntel,59.99880002,FALSE,,"Mozilla/5.0 (Macintosh; Intel Mac OS X 10_14_6) AppleWebKit/537.36 (KHTML, like Gecko) Chrome/92.0.4515.107 Safari/537.36",1440,740,1440,900,,,,,,,,8,1.9593,0.410820313,-0.377638889,1,0,0,next_trial_button,0,29,29,51,1,beach,visiblesun,yesclouds,6,"657.1279916753382,500",
,,,,,,,de,de,de,f,25,,2021-08-07_18h45.41.256,online_experiment,2021.1.4,MacIntel,59.99880002,FALSE,,"Mozilla/5.0 (Macintosh; Intel Mac OS X 10_14_6) AppleWebKit/537.36 (KHTML, like Gecko) Chrome/92.0.4515.107 Safari/537.36",1440,740,1440,900,,,,,,,,7,3.9608,0.354674479,-0.417695313,1,0,0,next_trial_button,0,30,30,64,1,beach,invisiblesun,noclouds,8,"1028.5714285714284,500",
,,,,,,,de,de,de,f,25,,2021-08-07_18h45.41.256,online_experiment,2021.1.4,MacIntel,59.99880002,FALSE,,"Mozilla/5.0 (Macintosh; Intel Mac OS X 10_14_6) AppleWebKit/537.36 (KHTML, like Gecko) Chrome/92.0.4515.107 Safari/537.36",1440,740,1440,900,,,,,,,,7,2.0773,0.42203125,-0.428320313,1,0,0,next_trial_button,0,31,31,48,1,beach,invisiblesun,noclouds,6,"1028.5714285714284,500",
,,,,,,,de,de,de,f,25,,2021-08-07_18h45.41.256,online_experiment,2021.1.4,MacIntel,59.99880002,FALSE,,"Mozilla/5.0 (Macintosh; Intel Mac OS X 10_14_6) AppleWebKit/537.36 (KHTML, like Gecko) Chrome/92.0.4515.107 Safari/537.36",1440,740,1440,900,,,,,,,,7,3.8814,0.381280382,-0.409644097,1,0,0,next_trial_button,0,32,32,14,1,landscape,visiblesun,noclouds,1,"745.9919839679359,500",
,,,,,,,de,de,de,f,25,,2021-08-07_18h45.41.256,online_experiment,2021.1.4,MacIntel,59.99880002,FALSE,,"Mozilla/5.0 (Macintosh; Intel Mac OS X 10_14_6) AppleWebKit/537.36 (KHTML, like Gecko) Chrome/92.0.4515.107 Safari/537.36",1440,740,1440,900,,,,,,,,8,2.6375,0.424960938,-0.422269965,1,0,0,next_trial_button,0,33,33,47,1,landscape,visiblesun,yesclouds,5,"666.6666666666666,500",
,,,,,,,de,de,de,f,25,,2021-08-07_18h45.41.256,online_experiment,2021.1.4,MacIntel,59.99880002,FALSE,,"Mozilla/5.0 (Macintosh; Intel Mac OS X 10_14_6) AppleWebKit/537.36 (KHTML, like Gecko) Chrome/92.0.4515.107 Safari/537.36",1440,740,1440,900,,,,,,,,6,2.6895,0.403506944,-0.403385417,1,0,0,next_trial_button,0,34,34,62,1,landscape,visiblesun,noclouds,7,"417.42389822807814,500",
,,,,,,,de,de,de,f,25,,2021-08-07_18h45.41.256,online_experiment,2021.1.4,MacIntel,59.99880002,FALSE,,"Mozilla/5.0 (Macintosh; Intel Mac OS X 10_14_6) AppleWebKit/537.36 (KHTML, like Gecko) Chrome/92.0.4515.107 Safari/537.36",1440,740,1440,900,,,,,,,,8,7.3608,0.4284375,-0.421206597,1,0,0,next_trial_button,0,35,35,73,1,beach,invisiblesun,yesclouds,9,"1028.5714285714284,500",
,,,,,,,de,de,de,f,25,,2021-08-07_18h45.41.256,online_experiment,2021.1.4,MacIntel,59.99880002,FALSE,,"Mozilla/5.0 (Macintosh; Intel Mac OS X 10_14_6) AppleWebKit/537.36 (KHTML, like Gecko) Chrome/92.0.4515.107 Safari/537.36",1440,740,1440,900,,,,,,,,4,3.1348,0.365381944,-0.410269097,1,0,0,next_trial_button,0,36,36,69,1,landscape,invisiblesun,yesclouds,8,"750,500",
,,,,,,,de,de,de,f,25,,2021-08-07_18h45.41.256,online_experiment,2021.1.4,MacIntel,59.99880002,FALSE,,"Mozilla/5.0 (Macintosh; Intel Mac OS X 10_14_6) AppleWebKit/537.36 (KHTML, like Gecko) Chrome/92.0.4515.107 Safari/537.36",1440,740,1440,900,,,,,,,,2,3.7279,0.417686632,-0.414144965,1,0,0,next_trial_button,0,37,37,63,1,landscape,visiblesun,yesclouds,7,"331.94444444444446,500",
,,,,,,,de,de,de,f,25,,2021-08-07_18h45.41.256,online_experiment,2021.1.4,MacIntel,59.99880002,FALSE,,"Mozilla/5.0 (Macintosh; Intel Mac OS X 10_14_6) AppleWebKit/537.36 (KHTML, like Gecko) Chrome/92.0.4515.107 Safari/537.36",1440,740,1440,900,,,,,,,,7,3.5381,0.432625868,-0.406592882,1,0,0,next_trial_button,0,38,38,19,1,beach,visiblesun,yesclouds,2,"770.1393095093882,500",
,,,,,,,de,de,de,f,25,,2021-08-07_18h45.41.256,online_experiment,2021.1.4,MacIntel,59.99880002,FALSE,,"Mozilla/5.0 (Macintosh; Intel Mac OS X 10_14_6) AppleWebKit/537.36 (KHTML, like Gecko) Chrome/92.0.4515.107 Safari/537.36",1440,740,1440,900,,,,,,,,8,4.4099,0.418038194,-0.411449653,1,0,0,next_trial_button,0,39,39,34,1,beach,visiblesun,noclouds,4,"749.6251874062968,500",
,,,,,,,de,de,de,f,25,,2021-08-07_18h45.41.256,online_experiment,2021.1.4,MacIntel,59.99880002,FALSE,,"Mozilla/5.0 (Macintosh; Intel Mac OS X 10_14_6) AppleWebKit/537.36 (KHTML, like Gecko) Chrome/92.0.4515.107 Safari/537.36",1440,740,1440,900,,,,,,,,5,4.9122,0.366631944,-0.411788194,1,0,0,next_trial_button,0,40,40,6,1,landscape,visiblesun,noclouds,0,"1413.8005159071367,500",
,,,,,,,de,de,de,f,25,,2021-08-07_18h45.41.256,online_experiment,2021.1.4,MacIntel,59.99880002,FALSE,,"Mozilla/5.0 (Macintosh; Intel Mac OS X 10_14_6) AppleWebKit/537.36 (KHTML, like Gecko) Chrome/92.0.4515.107 Safari/537.36",1440,740,1440,900,,,,,,,,7,2.6715,0.338246528,-0.440438368,1,0,0,next_trial_button,0,41,41,40,1,beach,invisiblesun,noclouds,5,"1028.5714285714284,500",
,,,,,,,de,de,de,f,25,,2021-08-07_18h45.41.256,online_experiment,2021.1.4,MacIntel,59.99880002,FALSE,,"Mozilla/5.0 (Macintosh; Intel Mac OS X 10_14_6) AppleWebKit/537.36 (KHTML, like Gecko) Chrome/92.0.4515.107 Safari/537.36",1440,740,1440,900,,,,,,,,4,2.2441,0.348372396,-0.378736979,1,0,0,next_trial_button,0,42,42,77,1,landscape,invisiblesun,yesclouds,9,"888.8888888888888,500",
,,,,,,,de,de,de,f,25,,2021-08-07_18h45.41.256,online_experiment,2021.1.4,MacIntel,59.99880002,FALSE,,"Mozilla/5.0 (Macintosh; Intel Mac OS X 10_14_6) AppleWebKit/537.36 (KHTML, like Gecko) Chrome/92.0.4515.107 Safari/537.36",1440,740,1440,900,,,,,,,,8,1.8443,0.474930556,-0.421601563,1,0,0,next_trial_button,0,43,43,4,1,landscape,invisiblesun,noclouds,0,"1276.9171185127807,500",
,,,,,,,de,de,de,f,25,,2021-08-07_18h45.41.256,online_experiment,2021.1.4,MacIntel,59.99880002,FALSE,,"Mozilla/5.0 (Macintosh; Intel Mac OS X 10_14_6) AppleWebKit/537.36 (KHTML, like Gecko) Chrome/92.0.4515.107 Safari/537.36",1440,740,1440,900,,,,,,,,4,2.4788,0.415694444,-0.403715278,1,0,0,next_trial_button,0,44,44,79,1,landscape,visiblesun,yesclouds,9,"1028.5714285714284,500",
,,,,,,,de,de,de,f,25,,2021-08-07_18h45.41.256,online_experiment,2021.1.4,MacIntel,59.99880002,FALSE,,"Mozilla/5.0 (Macintosh; Intel Mac OS X 10_14_6) AppleWebKit/537.36 (KHTML, like Gecko) Chrome/92.0.4515.107 Safari/537.36",1440,740,1440,900,,,,,,,,8,2.7911,0.358923611,-0.387612847,1,0,0,next_trial_button,0,45,45,53,1,landscape,invisiblesun,yesclouds,6,"750.0695023630803,500",
,,,,,,,de,de,de,f,25,,2021-08-07_18h45.41.256,online_experiment,2021.1.4,MacIntel,59.99880002,FALSE,,"Mozilla/5.0 (Macintosh; Intel Mac OS X 10_14_6) AppleWebKit/537.36 (KHTML, like Gecko) Chrome/92.0.4515.107 Safari/537.36",1440,740,1440,900,,,,,,,,7,4.1593,0.302070312,-0.412126736,1,0,0,next_trial_button,0,46,46,26,1,beach,visiblesun,noclouds,3,"888.8888888888888,500",
,,,,,,,de,de,de,f,25,,2021-08-07_18h45.41.256,online_experiment,2021.1.4,MacIntel,59.99880002,FALSE,,"Mozilla/5.0 (Macintosh; Intel Mac OS X 10_14_6) AppleWebKit/537.36 (KHTML, like Gecko) Chrome/92.0.4515.107 Safari/537.36",1440,740,1440,900,,,,,,,,6,4.796,0.362539063,-0.405707465,1,0,0,next_trial_button,0,47,47,58,1,beach,visiblesun,noclouds,7,"1028.5714285714284,500",
,,,,,,,de,de,de,f,25,,2021-08-07_18h45.41.256,online_experiment,2021.1.4,MacIntel,59.99880002,FALSE,,"Mozilla/5.0 (Macintosh; Intel Mac OS X 10_14_6) AppleWebKit/537.36 (KHTML, like Gecko) Chrome/92.0.4515.107 Safari/537.36",1440,740,1440,900,,,,,,,,7,2.5932,0.351684028,-0.410043403,1,0,0,next_trial_button,0,48,48,15,1,landscape,visiblesun,yesclouds,1,"333.3333333333333,500",
,,,,,,,de,de,de,f,25,,2021-08-07_18h45.41.256,online_experiment,2021.1.4,MacIntel,59.99880002,FALSE,,"Mozilla/5.0 (Macintosh; Intel Mac OS X 10_14_6) AppleWebKit/537.36 (KHTML, like Gecko) Chrome/92.0.4515.107 Safari/537.36",1440,740,1440,900,,,,,,,,6,2.4763,0.346480035,-0.419982639,1,0,0,next_trial_button,0,49,49,25,1,beach,invisiblesun,yesclouds,3,"750.4690431519699,500",
,,,,,,,de,de,de,f,25,,2021-08-07_18h45.41.256,online_experiment,2021.1.4,MacIntel,59.99880002,FALSE,,"Mozilla/5.0 (Macintosh; Intel Mac OS X 10_14_6) AppleWebKit/537.36 (KHTML, like Gecko) Chrome/92.0.4515.107 Safari/537.36",1440,740,1440,900,,,,,,,,4,2.1769,0.373190104,-0.42390191,1,0,0,next_trial_button,0,50,50,70,1,landscape,visiblesun,noclouds,8,"666.6666666666666,500",
,,,,,,,de,de,de,f,25,,2021-08-07_18h45.41.256,online_experiment,2021.1.4,MacIntel,59.99880002,FALSE,,"Mozilla/5.0 (Macintosh; Intel Mac OS X 10_14_6) AppleWebKit/537.36 (KHTML, like Gecko) Chrome/92.0.4515.107 Safari/537.36",1440,740,1440,900,,,,,,,,2,2.013,0.348706597,-0.433020833,1,0,0,next_trial_button,0,51,51,7,1,landscape,visiblesun,yesclouds,0,"743.421052631579,500",
,,,,,,,de,de,de,f,25,,2021-08-07_18h45.41.256,online_experiment,2021.1.4,MacIntel,59.99880002,FALSE,,"Mozilla/5.0 (Macintosh; Intel Mac OS X 10_14_6) AppleWebKit/537.36 (KHTML, like Gecko) Chrome/92.0.4515.107 Safari/537.36",1440,740,1440,900,,,,,,,,2,2.2761,0.391362847,-0.405447049,1,0,0,next_trial_button,0,52,52,68,1,landscape,invisiblesun,noclouds,8,"666.6666666666666,500",
,,,,,,,de,de,de,f,25,,2021-08-07_18h45.41.256,online_experiment,2021.1.4,MacIntel,59.99880002,FALSE,,"Mozilla/5.0 (Macintosh; Intel Mac OS X 10_14_6) AppleWebKit/537.36 (KHTML, like Gecko) Chrome/92.0.4515.107 Safari/537.36",1440,740,1440,900,,,,,,,,7,1.7769,0.384934896,-0.402526042,1,0,0,next_trial_button,0,53,53,9,1,beach,invisiblesun,yesclouds,1,"750,500",
,,,,,,,de,de,de,f,25,,2021-08-07_18h45.41.256,online_experiment,2021.1.4,MacIntel,59.99880002,FALSE,,"Mozilla/5.0 (Macintosh; Intel Mac OS X 10_14_6) AppleWebKit/537.36 (KHTML, like Gecko) Chrome/92.0.4515.107 Safari/537.36",1440,740,1440,900,,,,,,,,2,2.5582,0.370060764,-0.442296007,1,0,0,next_trial_button,0,54,54,71,1,landscape,visiblesun,yesclouds,8,"666.6666666666666,500",
,,,,,,,de,de,de,f,25,,2021-08-07_18h45.41.256,online_experiment,2021.1.4,MacIntel,59.99880002,FALSE,,"Mozilla/5.0 (Macintosh; Intel Mac OS X 10_14_6) AppleWebKit/537.36 (KHTML, like Gecko) Chrome/92.0.4515.107 Safari/537.36",1440,740,1440,900,,,,,,,,8,3.5105,0.451553819,-0.433194444,1,0,0,next_trial_button,0,55,55,67,1,beach,visiblesun,yesclouds,8,"748.1481481481482,500",
,,,,,,,de,de,de,f,25,,2021-08-07_18h45.41.256,online_experiment,2021.1.4,MacIntel,59.99880002,FALSE,,"Mozilla/5.0 (Macintosh; Intel Mac OS X 10_14_6) AppleWebKit/537.36 (KHTML, like Gecko) Chrome/92.0.4515.107 Safari/537.36",1440,740,1440,900,,,,,,,,8,2.225,0.416631944,-0.40594184,1,0,0,next_trial_button,0,56,56,43,1,beach,visiblesun,yesclouds,5,"750,500",
,,,,,,,de,de,de,f,25,,2021-08-07_18h45.41.256,online_experiment,2021.1.4,MacIntel,59.99880002,FALSE,,"Mozilla/5.0 (Macintosh; Intel Mac OS X 10_14_6) AppleWebKit/537.36 (KHTML, like Gecko) Chrome/92.0.4515.107 Safari/537.36",1440,740,1440,900,,,,,,,,8,3.7122,0.296011285,-0.419952257,1,0,0,next_trial_button,0,57,57,17,1,beach,invisiblesun,yesclouds,2,"684.8635235732011,500",
,,,,,,,de,de,de,f,25,,2021-08-07_18h45.41.256,online_experiment,2021.1.4,MacIntel,59.99880002,FALSE,,"Mozilla/5.0 (Macintosh; Intel Mac OS X 10_14_6) AppleWebKit/537.36 (KHTML, like Gecko) Chrome/92.0.4515.107 Safari/537.36",1440,740,1440,900,,,,,,,,7,4.1261,0.345217014,-0.425277778,1,0,0,next_trial_button,0,58,58,72,1,beach,invisiblesun,noclouds,9,"888.8888888888888,500",
,,,,,,,de,de,de,f,25,,2021-08-07_18h45.41.256,online_experiment,2021.1.4,MacIntel,59.99880002,FALSE,,"Mozilla/5.0 (Macintosh; Intel Mac OS X 10_14_6) AppleWebKit/537.36 (KHTML, like Gecko) Chrome/92.0.4515.107 Safari/537.36",1440,740,1440,900,,,,,,,,3,3.5254,0.348111979,-0.414943576,1,0,0,next_trial_button,0,59,59,44,1,landscape,invisiblesun,noclouds,5,"666.6666666666666,500",
,,,,,,,de,de,de,f,25,,2021-08-07_18h45.41.256,online_experiment,2021.1.4,MacIntel,59.99880002,FALSE,,"Mozilla/5.0 (Macintosh; Intel Mac OS X 10_14_6) AppleWebKit/537.36 (KHTML, like Gecko) Chrome/92.0.4515.107 Safari/537.36",1440,740,1440,900,,,,,,,,7,2.9112,0.338498264,-0.439817708,1,0,0,next_trial_button,0,60,60,42,1,beach,visiblesun,noclouds,5,"834.4594594594595,500",
,,,,,,,de,de,de,f,25,,2021-08-07_18h45.41.256,online_experiment,2021.1.4,MacIntel,59.99880002,FALSE,,"Mozilla/5.0 (Macintosh; Intel Mac OS X 10_14_6) AppleWebKit/537.36 (KHTML, like Gecko) Chrome/92.0.4515.107 Safari/537.36",1440,740,1440,900,,,,,,,,6,6.21,0.429010417,-0.415538194,1,0,0,next_trial_button,0,61,61,57,1,beach,invisiblesun,yesclouds,7,"749.707488299532,500",
,,,,,,,de,de,de,f,25,,2021-08-07_18h45.41.256,online_experiment,2021.1.4,MacIntel,59.99880002,FALSE,,"Mozilla/5.0 (Macintosh; Intel Mac OS X 10_14_6) AppleWebKit/537.36 (KHTML, like Gecko) Chrome/92.0.4515.107 Safari/537.36",1440,740,1440,900,,,,,,,,4,2.406,0.459240451,-0.423645833,1,0,0,next_trial_button,0,62,62,33,1,beach,invisiblesun,yesclouds,4,"751.5473032714411,500",
,,,,,,,de,de,de,f,25,,2021-08-07_18h45.41.256,online_experiment,2021.1.4,MacIntel,59.99880002,FALSE,,"Mozilla/5.0 (Macintosh; Intel Mac OS X 10_14_6) AppleWebKit/537.36 (KHTML, like Gecko) Chrome/92.0.4515.107 Safari/537.36",1440,740,1440,900,,,,,,,,4,2.3556,0.405694444,-0.443637153,1,0,0,next_trial_button,0,63,63,78,1,landscape,visiblesun,noclouds,9,"666.6666666666666,500",
,,,,,,,de,de,de,f,25,,2021-08-07_18h45.41.256,online_experiment,2021.1.4,MacIntel,59.99880002,FALSE,,"Mozilla/5.0 (Macintosh; Intel Mac OS X 10_14_6) AppleWebKit/537.36 (KHTML, like Gecko) Chrome/92.0.4515.107 Safari/537.36",1440,740,1440,900,,,,,,,,3,2.612,0.445872396,-0.417087674,1,0,0,next_trial_button,0,64,64,76,1,landscape,invisiblesun,noclouds,9,"1056.6037735849056,500",
,,,,,,,de,de,de,f,25,,2021-08-07_18h45.41.256,online_experiment,2021.1.4,MacIntel,59.99880002,FALSE,,"Mozilla/5.0 (Macintosh; Intel Mac OS X 10_14_6) AppleWebKit/537.36 (KHTML, like Gecko) Chrome/92.0.4515.107 Safari/537.36",1440,740,1440,900,,,,,,,,7,2.4924,0.45125,-0.418736979,1,0,0,next_trial_button,0,65,65,50,1,beach,visiblesun,noclouds,6,"666.6666666666666,500",
,,,,,,,de,de,de,f,25,,2021-08-07_18h45.41.256,online_experiment,2021.1.4,MacIntel,59.99880002,FALSE,,"Mozilla/5.0 (Macintosh; Intel Mac OS X 10_14_6) AppleWebKit/537.36 (KHTML, like Gecko) Chrome/92.0.4515.107 Safari/537.36",1440,740,1440,900,,,,,,,,8,2.0406,0.450559896,-0.411072049,1,0,0,next_trial_button,0,66,66,16,1,beach,invisiblesun,noclouds,2,"752.8089887640449,500",
,,,,,,,de,de,de,f,25,,2021-08-07_18h45.41.256,online_experiment,2021.1.4,MacIntel,59.99880002,FALSE,,"Mozilla/5.0 (Macintosh; Intel Mac OS X 10_14_6) AppleWebKit/537.36 (KHTML, like Gecko) Chrome/92.0.4515.107 Safari/537.36",1440,740,1440,900,,,,,,,,6,2.226,0.390885417,-0.411436632,1,0,0,next_trial_button,0,67,67,35,1,beach,visiblesun,yesclouds,4,"750,500",
,,,,,,,de,de,de,f,25,,2021-08-07_18h45.41.256,online_experiment,2021.1.4,MacIntel,59.99880002,FALSE,,"Mozilla/5.0 (Macintosh; Intel Mac OS X 10_14_6) AppleWebKit/537.36 (KHTML, like Gecko) Chrome/92.0.4515.107 Safari/537.36",1440,740,1440,900,,,,,,,,5,3.2107,0.348172743,-0.449279514,1,0,0,next_trial_button,0,68,68,55,1,landscape,visiblesun,yesclouds,6,"749.8819083608881,500",
,,,,,,,de,de,de,f,25,,2021-08-07_18h45.41.256,online_experiment,2021.1.4,MacIntel,59.99880002,FALSE,,"Mozilla/5.0 (Macintosh; Intel Mac OS X 10_14_6) AppleWebKit/537.36 (KHTML, like Gecko) Chrome/92.0.4515.107 Safari/537.36",1440,740,1440,900,,,,,,,,7,3.2777,0.510481771,-0.433133681,1,0,0,next_trial_button,0,69,69,24,1,beach,invisiblesun,noclouds,3,"750.089190153407,500",
,,,,,,,de,de,de,f,25,,2021-08-07_18h45.41.256,online_experiment,2021.1.4,MacIntel,59.99880002,FALSE,,"Mozilla/5.0 (Macintosh; Intel Mac OS X 10_14_6) AppleWebKit/537.36 (KHTML, like Gecko) Chrome/92.0.4515.107 Safari/537.36",1440,740,1440,900,,,,,,,,6,4.9876,0.32250434,-0.415295139,1,0,0,next_trial_button,0,70,70,56,1,beach,invisiblesun,noclouds,7,"1028.5714285714284,500",
,,,,,,,de,de,de,f,25,,2021-08-07_18h45.41.256,online_experiment,2021.1.4,MacIntel,59.99880002,FALSE,,"Mozilla/5.0 (Macintosh; Intel Mac OS X 10_14_6) AppleWebKit/537.36 (KHTML, like Gecko) Chrome/92.0.4515.107 Safari/537.36",1440,740,1440,900,,,,,,,,8,3.2277,0.332287326,-0.415742188,1,0,0,next_trial_button,0,71,71,29,1,landscape,invisiblesun,yesclouds,3,"749.8660953401178,500",
,,,,,,,de,de,de,f,25,,2021-08-07_18h45.41.256,online_experiment,2021.1.4,MacIntel,59.99880002,FALSE,,"Mozilla/5.0 (Macintosh; Intel Mac OS X 10_14_6) AppleWebKit/537.36 (KHTML, like Gecko) Chrome/92.0.4515.107 Safari/537.36",1440,740,1440,900,,,,,,,,6,5.5296,0.444453125,-0.426193576,1,0,0,next_trial_button,0,72,72,21,1,landscape,invisiblesun,yesclouds,2,"750,500",
,,,,,,,de,de,de,f,25,,2021-08-07_18h45.41.256,online_experiment,2021.1.4,MacIntel,59.99880002,FALSE,,"Mozilla/5.0 (Macintosh; Intel Mac OS X 10_14_6) AppleWebKit/537.36 (KHTML, like Gecko) Chrome/92.0.4515.107 Safari/537.36",1440,740,1440,900,,,,,,,,4,9.4726,0.403302951,-0.409913194,1,0,0,next_trial_button,0,73,73,20,1,landscape,invisiblesun,noclouds,2,"755.192878338279,500",
,,,,,,,de,de,de,f,25,,2021-08-07_18h45.41.256,online_experiment,2021.1.4,MacIntel,59.99880002,FALSE,,"Mozilla/5.0 (Macintosh; Intel Mac OS X 10_14_6) AppleWebKit/537.36 (KHTML, like Gecko) Chrome/92.0.4515.107 Safari/537.36",1440,740,1440,900,,,,,,,,6,14.6818,0.437009549,-0.422517361,1,0,0,next_trial_button,0,74,74,59,1,beach,visiblesun,yesclouds,7,"888.9689978370584,500",
,,,,,,,de,de,de,f,25,,2021-08-07_18h45.41.256,online_experiment,2021.1.4,MacIntel,59.99880002,FALSE,,"Mozilla/5.0 (Macintosh; Intel Mac OS X 10_14_6) AppleWebKit/537.36 (KHTML, like Gecko) Chrome/92.0.4515.107 Safari/537.36",1440,740,1440,900,,,,,,,,9,2.9698,0.361263021,-0.395898437,1,0,0,next_trial_button,0,75,75,52,1,landscape,invisiblesun,noclouds,6,"666.6666666666666,500",
,,,,,,,de,de,de,f,25,,2021-08-07_18h45.41.256,online_experiment,2021.1.4,MacIntel,59.99880002,FALSE,,"Mozilla/5.0 (Macintosh; Intel Mac OS X 10_14_6) AppleWebKit/537.36 (KHTML, like Gecko) Chrome/92.0.4515.107 Safari/537.36",1440,740,1440,900,,,,,,,,7,2.9265,0.38484375,-0.427773438,1,0,0,next_trial_button,0,76,76,8,1,beach,invisiblesun,noclouds,1,"1215.1898734177216,500",
,,,,,,,de,de,de,f,25,,2021-08-07_18h45.41.256,online_experiment,2021.1.4,MacIntel,59.99880002,FALSE,,"Mozilla/5.0 (Macintosh; Intel Mac OS X 10_14_6) AppleWebKit/537.36 (KHTML, like Gecko) Chrome/92.0.4515.107 Safari/537.36",1440,740,1440,900,,,,,,,,9,2.0276,0.331601563,-0.423836806,1,0,0,next_trial_button,0,77,77,41,1,beach,invisiblesun,yesclouds,5,"1248.4394506866417,500",
,,,,,,,de,de,de,f,25,,2021-08-07_18h45.41.256,online_experiment,2021.1.4,MacIntel,59.99880002,FALSE,,"Mozilla/5.0 (Macintosh; Intel Mac OS X 10_14_6) AppleWebKit/537.36 (KHTML, like Gecko) Chrome/92.0.4515.107 Safari/537.36",1440,740,1440,900,,,,,,,,6,3.1453,0.314756944,-0.421397569,1,0,0,next_trial_button,0,78,78,74,1,beach,visiblesun,noclouds,9,"1028.5714285714284,500",
,,,,,,,de,de,de,f,25,,2021-08-07_18h45.41.256,online_experiment,2021.1.4,MacIntel,59.99880002,FALSE,,"Mozilla/5.0 (Macintosh; Intel Mac OS X 10_14_6) AppleWebKit/537.36 (KHTML, like Gecko) Chrome/92.0.4515.107 Safari/537.36",1440,740,1440,900,,,,,,,,8,2.4243,0.358663194,-0.393689236,1,0,0,next_trial_button,0,79,79,45,1,landscape,invisiblesun,yesclouds,5,"749.6251874062968,500",
,,,,,,,de,de,de,f,25,,2021-08-07_18h45.41.256,online_experiment,2021.1.4,MacIntel,59.99880002,FALSE,,"Mozilla/5.0 (Macintosh; Intel Mac OS X 10_14_6) AppleWebKit/537.36 (KHTML, like Gecko) Chrome/92.0.4515.107 Safari/537.36",1440,740,1440,900,,,,,,,,,,,,,,,,,,,,,,,,,"749.6251874062968,500",419.4542
