language_mouse.x,language_mouse.y,language_mouse.leftButton,language_mouse.midButton,language_mouse.rightButton,language_mouse.time,language_mouse.clicked_name,nationality,mother_tongue,homeland,gender,age,email,date,expName,psychopyVersion,OS,frameRate,cancel_experiment,cancel_reasons,client_agent_information,windowWidth,windowHeight,xRes,yRes,start_exp_mouse.x,start_exp_mouse.y,start_exp_mouse.leftButton,start_exp_mouse.midButton,start_exp_mouse.rightButton,start_exp_mouse.time,start_exp_mouse.clicked_name,rating_slider.response,rating_slider.rt,next_trial_mouse.x,next_trial_mouse.y,next_trial_mouse.leftButton,next_trial_mouse.midButton,next_trial_mouse.rightButton,next_trial_mouse.clicked_name,trials.thisRepN,trials.thisTrialN,trials.thisN,trials.thisIndex,trials.ran,environment,sunVisibility,cloudVisibility,imageId,imgSize,globalClockTime
-0.35308642,-0.256790123,1,0,0,0.682,de_flag,de,de,de,f,42,,2021-07-13_07h27.47.261,online_experiment,2021.1.4,Linux x86_64,61.05006105,FALSE,,Mozilla/5.0 (X11; Linux x86_64; rv:89.0) Gecko/20100101 Firefox/89.0,1421,628,1440,810,,,,,,,,,,,,,,,,,,,,,,,,,,
,,,,,,,de,de,de,f,42,,2021-07-13_07h27.47.261,online_experiment,2021.1.4,Linux x86_64,61.05006105,FALSE,,Mozilla/5.0 (X11; Linux x86_64; rv:89.0) Gecko/20100101 Firefox/89.0,1421,628,1440,810,0.028395062,-0.420987654,1,0,0,4.149,cont_gr,6,7.887,0.381481481,-0.424691358,1,0,0,next_trial_button,0,0,0,77,1,landscape,invisiblesun,yesclouds,9,"888.8888888888888,500",
,,,,,,,de,de,de,f,42,,2021-07-13_07h27.47.261,online_experiment,2021.1.4,Linux x86_64,61.05006105,FALSE,,Mozilla/5.0 (X11; Linux x86_64; rv:89.0) Gecko/20100101 Firefox/89.0,1421,628,1440,810,,,,,,,,8,3.242,0.397530864,-0.427160494,1,0,0,next_trial_button,0,1,1,75,1,beach,visiblesun,yesclouds,9,"1029.6010296010297,500",
,,,,,,,de,de,de,f,42,,2021-07-13_07h27.47.261,online_experiment,2021.1.4,Linux x86_64,61.05006105,FALSE,,Mozilla/5.0 (X11; Linux x86_64; rv:89.0) Gecko/20100101 Firefox/89.0,1421,628,1440,810,,,,,,,,8,4.242,0.47037037,-0.434567901,1,0,0,next_trial_button,0,2,2,40,1,beach,invisiblesun,noclouds,5,"1028.5714285714284,500",
,,,,,,,de,de,de,f,42,,2021-07-13_07h27.47.261,online_experiment,2021.1.4,Linux x86_64,61.05006105,FALSE,,Mozilla/5.0 (X11; Linux x86_64; rv:89.0) Gecko/20100101 Firefox/89.0,1421,628,1440,810,,,,,,,,7,4.375,0.409876543,-0.418518519,1,0,0,next_trial_button,0,3,3,51,1,beach,visiblesun,yesclouds,6,"657.1279916753382,500",
,,,,,,,de,de,de,f,42,,2021-07-13_07h27.47.261,online_experiment,2021.1.4,Linux x86_64,61.05006105,FALSE,,Mozilla/5.0 (X11; Linux x86_64; rv:89.0) Gecko/20100101 Firefox/89.0,1421,628,1440,810,,,,,,,,8,3.202,0.337037037,-0.420987654,1,0,0,next_trial_button,0,4,4,23,1,landscape,visiblesun,yesclouds,2,"767.97829036635,500",
,,,,,,,de,de,de,f,42,,2021-07-13_07h27.47.261,online_experiment,2021.1.4,Linux x86_64,61.05006105,FALSE,,Mozilla/5.0 (X11; Linux x86_64; rv:89.0) Gecko/20100101 Firefox/89.0,1421,628,1440,810,,,,,,,,5,3.975,0.366666667,-0.433333333,1,0,0,next_trial_button,0,5,5,22,1,landscape,visiblesun,noclouds,2,"749.3333333333333,500",
,,,,,,,de,de,de,f,42,,2021-07-13_07h27.47.261,online_experiment,2021.1.4,Linux x86_64,61.05006105,FALSE,,Mozilla/5.0 (X11; Linux x86_64; rv:89.0) Gecko/20100101 Firefox/89.0,1421,628,1440,810,,,,,,,,8,3.597,0.428395062,-0.416049383,1,0,0,next_trial_button,0,6,6,16,1,beach,invisiblesun,noclouds,2,"752.8089887640449,500",
,,,,,,,de,de,de,f,42,,2021-07-13_07h27.47.261,online_experiment,2021.1.4,Linux x86_64,61.05006105,FALSE,,Mozilla/5.0 (X11; Linux x86_64; rv:89.0) Gecko/20100101 Firefox/89.0,1421,628,1440,810,,,,,,,,4,3.449,0.39382716,-0.380246914,1,0,0,next_trial_button,0,7,7,61,1,landscape,invisiblesun,yesclouds,7,"500,500",
,,,,,,,de,de,de,f,42,,2021-07-13_07h27.47.261,online_experiment,2021.1.4,Linux x86_64,61.05006105,FALSE,,Mozilla/5.0 (X11; Linux x86_64; rv:89.0) Gecko/20100101 Firefox/89.0,1421,628,1440,810,,,,,,,,5,2.29,0.381481481,-0.40617284,1,0,0,next_trial_button,0,8,8,79,1,landscape,visiblesun,yesclouds,9,"1028.5714285714284,500",
,,,,,,,de,de,de,f,42,,2021-07-13_07h27.47.261,online_experiment,2021.1.4,Linux x86_64,61.05006105,FALSE,,Mozilla/5.0 (X11; Linux x86_64; rv:89.0) Gecko/20100101 Firefox/89.0,1421,628,1440,810,,,,,,,,5,2.677,0.445679012,-0.409876543,1,0,0,next_trial_button,0,9,9,63,1,landscape,visiblesun,yesclouds,7,"331.94444444444446,500",
,,,,,,,de,de,de,f,42,,2021-07-13_07h27.47.261,online_experiment,2021.1.4,Linux x86_64,61.05006105,FALSE,,Mozilla/5.0 (X11; Linux x86_64; rv:89.0) Gecko/20100101 Firefox/89.0,1421,628,1440,810,,,,,,,,4,2.327,0.358024691,-0.40617284,1,0,0,next_trial_button,0,10,10,52,1,landscape,invisiblesun,noclouds,6,"666.6666666666666,500",
,,,,,,,de,de,de,f,42,,2021-07-13_07h27.47.261,online_experiment,2021.1.4,Linux x86_64,61.05006105,FALSE,,Mozilla/5.0 (X11; Linux x86_64; rv:89.0) Gecko/20100101 Firefox/89.0,1421,628,1440,810,,,,,,,,6,3.313,0.427160494,-0.420987654,1,0,0,next_trial_button,0,11,11,64,1,beach,invisiblesun,noclouds,8,"1028.5714285714284,500",
,,,,,,,de,de,de,f,42,,2021-07-13_07h27.47.261,online_experiment,2021.1.4,Linux x86_64,61.05006105,FALSE,,Mozilla/5.0 (X11; Linux x86_64; rv:89.0) Gecko/20100101 Firefox/89.0,1421,628,1440,810,,,,,,,,6,10.209,0.387654321,-0.409876543,1,0,0,next_trial_button,0,12,12,10,1,beach,visiblesun,noclouds,1,"747.0261697065821,500",
,,,,,,,de,de,de,f,42,,2021-07-13_07h27.47.261,online_experiment,2021.1.4,Linux x86_64,61.05006105,FALSE,,Mozilla/5.0 (X11; Linux x86_64; rv:89.0) Gecko/20100101 Firefox/89.0,1421,628,1440,810,,,,,,,,8,2.409,0.385185185,-0.414814815,1,0,0,next_trial_button,0,13,13,9,1,beach,invisiblesun,yesclouds,1,"750,500",
,,,,,,,de,de,de,f,42,,2021-07-13_07h27.47.261,online_experiment,2021.1.4,Linux x86_64,61.05006105,FALSE,,Mozilla/5.0 (X11; Linux x86_64; rv:89.0) Gecko/20100101 Firefox/89.0,1421,628,1440,810,,,,,,,,6,3.944,0.338271605,-0.425925926,1,0,0,next_trial_button,0,14,14,58,1,beach,visiblesun,noclouds,7,"1028.5714285714284,500",
,,,,,,,de,de,de,f,42,,2021-07-13_07h27.47.261,online_experiment,2021.1.4,Linux x86_64,61.05006105,FALSE,,Mozilla/5.0 (X11; Linux x86_64; rv:89.0) Gecko/20100101 Firefox/89.0,1421,628,1440,810,,,,,,,,6,2.344,0.361728395,-0.422222222,1,0,0,next_trial_button,0,15,15,2,1,beach,visiblesun,noclouds,0,"375,500",
,,,,,,,de,de,de,f,42,,2021-07-13_07h27.47.261,online_experiment,2021.1.4,Linux x86_64,61.05006105,FALSE,,Mozilla/5.0 (X11; Linux x86_64; rv:89.0) Gecko/20100101 Firefox/89.0,1421,628,1440,810,,,,,,,,6,10.925,0.381481481,-0.418518519,1,0,0,next_trial_button,0,16,16,19,1,beach,visiblesun,yesclouds,2,"770.1393095093882,500",
,,,,,,,de,de,de,f,42,,2021-07-13_07h27.47.261,online_experiment,2021.1.4,Linux x86_64,61.05006105,FALSE,,Mozilla/5.0 (X11; Linux x86_64; rv:89.0) Gecko/20100101 Firefox/89.0,1421,628,1440,810,,,,,,,,4,1.945,0.361728395,-0.441975309,1,0,0,next_trial_button,0,17,17,68,1,landscape,invisiblesun,noclouds,8,"666.6666666666666,500",
,,,,,,,de,de,de,f,42,,2021-07-13_07h27.47.261,online_experiment,2021.1.4,Linux x86_64,61.05006105,FALSE,,Mozilla/5.0 (X11; Linux x86_64; rv:89.0) Gecko/20100101 Firefox/89.0,1421,628,1440,810,,,,,,,,6,2.78,0.428395062,-0.397530864,1,0,0,next_trial_button,0,18,18,56,1,beach,invisiblesun,noclouds,7,"1028.5714285714284,500",
,,,,,,,de,de,de,f,42,,2021-07-13_07h27.47.261,online_experiment,2021.1.4,Linux x86_64,61.05006105,FALSE,,Mozilla/5.0 (X11; Linux x86_64; rv:89.0) Gecko/20100101 Firefox/89.0,1421,628,1440,810,,,,,,,,6,3.429,0.398765432,-0.397530864,1,0,0,next_trial_button,0,19,19,15,1,landscape,visiblesun,yesclouds,1,"333.3333333333333,500",
,,,,,,,de,de,de,f,42,,2021-07-13_07h27.47.261,online_experiment,2021.1.4,Linux x86_64,61.05006105,FALSE,,Mozilla/5.0 (X11; Linux x86_64; rv:89.0) Gecko/20100101 Firefox/89.0,1421,628,1440,810,,,,,,,,4,2.646,0.367901235,-0.424691358,1,0,0,next_trial_button,0,20,20,13,1,landscape,invisiblesun,yesclouds,1,"783.1192660550458,500",
,,,,,,,de,de,de,f,42,,2021-07-13_07h27.47.261,online_experiment,2021.1.4,Linux x86_64,61.05006105,FALSE,,Mozilla/5.0 (X11; Linux x86_64; rv:89.0) Gecko/20100101 Firefox/89.0,1421,628,1440,810,,,,,,,,5,3.508,0.377777778,-0.434567901,1,0,0,next_trial_button,0,21,21,29,1,landscape,invisiblesun,yesclouds,3,"749.8660953401178,500",
,,,,,,,de,de,de,f,42,,2021-07-13_07h27.47.261,online_experiment,2021.1.4,Linux x86_64,61.05006105,FALSE,,Mozilla/5.0 (X11; Linux x86_64; rv:89.0) Gecko/20100101 Firefox/89.0,1421,628,1440,810,,,,,,,,4,2.297,0.307407407,-0.408641975,1,0,0,next_trial_button,0,22,22,6,1,landscape,visiblesun,noclouds,0,"1413.8005159071367,500",
,,,,,,,de,de,de,f,42,,2021-07-13_07h27.47.261,online_experiment,2021.1.4,Linux x86_64,61.05006105,FALSE,,Mozilla/5.0 (X11; Linux x86_64; rv:89.0) Gecko/20100101 Firefox/89.0,1421,628,1440,810,,,,,,,,6,2.996,0.408641975,-0.440740741,1,0,0,next_trial_button,0,23,23,17,1,beach,invisiblesun,yesclouds,2,"684.8635235732011,500",
,,,,,,,de,de,de,f,42,,2021-07-13_07h27.47.261,online_experiment,2021.1.4,Linux x86_64,61.05006105,FALSE,,Mozilla/5.0 (X11; Linux x86_64; rv:89.0) Gecko/20100101 Firefox/89.0,1421,628,1440,810,,,,,,,,4,5.811,0.367901235,-0.42962963,1,0,0,next_trial_button,0,24,24,39,1,landscape,visiblesun,yesclouds,4,"749.7656982193065,500",
,,,,,,,de,de,de,f,42,,2021-07-13_07h27.47.261,online_experiment,2021.1.4,Linux x86_64,61.05006105,FALSE,,Mozilla/5.0 (X11; Linux x86_64; rv:89.0) Gecko/20100101 Firefox/89.0,1421,628,1440,810,,,,,,,,3,2.313,0.35308642,-0.372839506,1,0,0,next_trial_button,0,25,25,38,1,landscape,visiblesun,noclouds,4,"733.3333333333333,500",
,,,,,,,de,de,de,f,42,,2021-07-13_07h27.47.261,online_experiment,2021.1.4,Linux x86_64,61.05006105,FALSE,,Mozilla/5.0 (X11; Linux x86_64; rv:89.0) Gecko/20100101 Firefox/89.0,1421,628,1440,810,,,,,,,,5,4.028,0.454320988,-0.433333333,1,0,0,next_trial_button,0,26,26,41,1,beach,invisiblesun,yesclouds,5,"1248.4394506866417,500",
,,,,,,,de,de,de,f,42,,2021-07-13_07h27.47.261,online_experiment,2021.1.4,Linux x86_64,61.05006105,FALSE,,Mozilla/5.0 (X11; Linux x86_64; rv:89.0) Gecko/20100101 Firefox/89.0,1421,628,1440,810,,,,,,,,7,3.735,0.365432099,-0.40617284,1,0,0,next_trial_button,0,27,27,3,1,beach,visiblesun,yesclouds,0,"1152.5122276567363,500",
,,,,,,,de,de,de,f,42,,2021-07-13_07h27.47.261,online_experiment,2021.1.4,Linux x86_64,61.05006105,FALSE,,Mozilla/5.0 (X11; Linux x86_64; rv:89.0) Gecko/20100101 Firefox/89.0,1421,628,1440,810,,,,,,,,3,4.928,0.443209877,-0.428395062,1,0,0,next_trial_button,0,28,28,55,1,landscape,visiblesun,yesclouds,6,"749.8819083608881,500",
,,,,,,,de,de,de,f,42,,2021-07-13_07h27.47.261,online_experiment,2021.1.4,Linux x86_64,61.05006105,FALSE,,Mozilla/5.0 (X11; Linux x86_64; rv:89.0) Gecko/20100101 Firefox/89.0,1421,628,1440,810,,,,,,,,3,2.731,0.382716049,-0.420987654,1,0,0,next_trial_button,0,29,29,42,1,beach,visiblesun,noclouds,5,"834.4594594594595,500",
,,,,,,,de,de,de,f,42,,2021-07-13_07h27.47.261,online_experiment,2021.1.4,Linux x86_64,61.05006105,FALSE,,Mozilla/5.0 (X11; Linux x86_64; rv:89.0) Gecko/20100101 Firefox/89.0,1421,628,1440,810,,,,,,,,6,5.11,0.387654321,-0.387654321,1,0,0,next_trial_button,0,30,30,27,1,beach,visiblesun,yesclouds,3,"752.8089887640449,500",
,,,,,,,de,de,de,f,42,,2021-07-13_07h27.47.261,online_experiment,2021.1.4,Linux x86_64,61.05006105,FALSE,,Mozilla/5.0 (X11; Linux x86_64; rv:89.0) Gecko/20100101 Firefox/89.0,1421,628,1440,810,,,,,,,,5,5.097,0.481481481,-0.414814815,1,0,0,next_trial_button,0,31,31,5,1,landscape,invisiblesun,yesclouds,0,"750.4690431519699,500",
,,,,,,,de,de,de,f,42,,2021-07-13_07h27.47.261,online_experiment,2021.1.4,Linux x86_64,61.05006105,FALSE,,Mozilla/5.0 (X11; Linux x86_64; rv:89.0) Gecko/20100101 Firefox/89.0,1421,628,1440,810,,,,,,,,6,2.327,0.450617284,-0.411111111,1,0,0,next_trial_button,0,32,32,44,1,landscape,invisiblesun,noclouds,5,"666.6666666666666,500",
,,,,,,,de,de,de,f,42,,2021-07-13_07h27.47.261,online_experiment,2021.1.4,Linux x86_64,61.05006105,FALSE,,Mozilla/5.0 (X11; Linux x86_64; rv:89.0) Gecko/20100101 Firefox/89.0,1421,628,1440,810,,,,,,,,5,3.931,0.390123457,-0.417283951,1,0,0,next_trial_button,0,33,33,36,1,landscape,invisiblesun,noclouds,4,"281.25,500",
,,,,,,,de,de,de,f,42,,2021-07-13_07h27.47.261,online_experiment,2021.1.4,Linux x86_64,61.05006105,FALSE,,Mozilla/5.0 (X11; Linux x86_64; rv:89.0) Gecko/20100101 Firefox/89.0,1421,628,1440,810,,,,,,,,8,2.488,0.417283951,-0.411111111,1,0,0,next_trial_button,0,34,34,24,1,beach,invisiblesun,noclouds,3,"750.089190153407,500",
,,,,,,,de,de,de,f,42,,2021-07-13_07h27.47.261,online_experiment,2021.1.4,Linux x86_64,61.05006105,FALSE,,Mozilla/5.0 (X11; Linux x86_64; rv:89.0) Gecko/20100101 Firefox/89.0,1421,628,1440,810,,,,,,,,4,1.748,0.469135802,-0.398765432,1,0,0,next_trial_button,0,35,35,71,1,landscape,visiblesun,yesclouds,8,"666.6666666666666,500",
,,,,,,,de,de,de,f,42,,2021-07-13_07h27.47.261,online_experiment,2021.1.4,Linux x86_64,61.05006105,FALSE,,Mozilla/5.0 (X11; Linux x86_64; rv:89.0) Gecko/20100101 Firefox/89.0,1421,628,1440,810,,,,,,,,3,2.517,0.380246914,-0.420987654,1,0,0,next_trial_button,0,36,36,28,1,landscape,invisiblesun,noclouds,3,"888.8888888888888,500",
,,,,,,,de,de,de,f,42,,2021-07-13_07h27.47.261,online_experiment,2021.1.4,Linux x86_64,61.05006105,FALSE,,Mozilla/5.0 (X11; Linux x86_64; rv:89.0) Gecko/20100101 Firefox/89.0,1421,628,1440,810,,,,,,,,3,5.778,0.332098765,-0.417283951,1,0,0,next_trial_button,0,37,37,76,1,landscape,invisiblesun,noclouds,9,"1056.6037735849056,500",
,,,,,,,de,de,de,f,42,,2021-07-13_07h27.47.261,online_experiment,2021.1.4,Linux x86_64,61.05006105,FALSE,,Mozilla/5.0 (X11; Linux x86_64; rv:89.0) Gecko/20100101 Firefox/89.0,1421,628,1440,810,,,,,,,,6,2.33,0.345679012,-0.409876543,1,0,0,next_trial_button,0,38,38,49,1,beach,invisiblesun,yesclouds,6,"858.4474885844749,500",
,,,,,,,de,de,de,f,42,,2021-07-13_07h27.47.261,online_experiment,2021.1.4,Linux x86_64,61.05006105,FALSE,,Mozilla/5.0 (X11; Linux x86_64; rv:89.0) Gecko/20100101 Firefox/89.0,1421,628,1440,810,,,,,,,,4,5.563,0.375308642,-0.422222222,1,0,0,next_trial_button,0,39,39,20,1,landscape,invisiblesun,noclouds,2,"755.192878338279,500",
,,,,,,,de,de,de,f,42,,2021-07-13_07h27.47.261,online_experiment,2021.1.4,Linux x86_64,61.05006105,FALSE,,Mozilla/5.0 (X11; Linux x86_64; rv:89.0) Gecko/20100101 Firefox/89.0,1421,628,1440,810,,,,,,,,4,1.934,0.486419753,-0.4,1,0,0,next_trial_button,0,40,40,7,1,landscape,visiblesun,yesclouds,0,"743.421052631579,500",
,,,,,,,de,de,de,f,42,,2021-07-13_07h27.47.261,online_experiment,2021.1.4,Linux x86_64,61.05006105,FALSE,,Mozilla/5.0 (X11; Linux x86_64; rv:89.0) Gecko/20100101 Firefox/89.0,1421,628,1440,810,,,,,,,,7,2.946,0.397530864,-0.407407407,1,0,0,next_trial_button,0,41,41,45,1,landscape,invisiblesun,yesclouds,5,"749.6251874062968,500",
,,,,,,,de,de,de,f,42,,2021-07-13_07h27.47.261,online_experiment,2021.1.4,Linux x86_64,61.05006105,FALSE,,Mozilla/5.0 (X11; Linux x86_64; rv:89.0) Gecko/20100101 Firefox/89.0,1421,628,1440,810,,,,,,,,5,2.112,0.412345679,-0.4,1,0,0,next_trial_button,0,42,42,78,1,landscape,visiblesun,noclouds,9,"666.6666666666666,500",
,,,,,,,de,de,de,f,42,,2021-07-13_07h27.47.261,online_experiment,2021.1.4,Linux x86_64,61.05006105,FALSE,,Mozilla/5.0 (X11; Linux x86_64; rv:89.0) Gecko/20100101 Firefox/89.0,1421,628,1440,810,,,,,,,,4,5.29,0.358024691,-0.403703704,1,0,0,next_trial_button,0,43,43,70,1,landscape,visiblesun,noclouds,8,"666.6666666666666,500",
,,,,,,,de,de,de,f,42,,2021-07-13_07h27.47.261,online_experiment,2021.1.4,Linux x86_64,61.05006105,FALSE,,Mozilla/5.0 (X11; Linux x86_64; rv:89.0) Gecko/20100101 Firefox/89.0,1421,628,1440,810,,,,,,,,8,2.655,0.383950617,-0.401234568,1,0,0,next_trial_button,0,44,44,26,1,beach,visiblesun,noclouds,3,"888.8888888888888,500",
,,,,,,,de,de,de,f,42,,2021-07-13_07h27.47.261,online_experiment,2021.1.4,Linux x86_64,61.05006105,FALSE,,Mozilla/5.0 (X11; Linux x86_64; rv:89.0) Gecko/20100101 Firefox/89.0,1421,628,1440,810,,,,,,,,7,3.379,0.375308642,-0.417283951,1,0,0,next_trial_button,0,45,45,74,1,beach,visiblesun,noclouds,9,"1028.5714285714284,500",
,,,,,,,de,de,de,f,42,,2021-07-13_07h27.47.261,online_experiment,2021.1.4,Linux x86_64,61.05006105,FALSE,,Mozilla/5.0 (X11; Linux x86_64; rv:89.0) Gecko/20100101 Firefox/89.0,1421,628,1440,810,,,,,,,,6,8.694,0.498765432,-0.407407407,1,0,0,next_trial_button,0,46,46,59,1,beach,visiblesun,yesclouds,7,"888.9689978370584,500",
,,,,,,,de,de,de,f,42,,2021-07-13_07h27.47.261,online_experiment,2021.1.4,Linux x86_64,61.05006105,FALSE,,Mozilla/5.0 (X11; Linux x86_64; rv:89.0) Gecko/20100101 Firefox/89.0,1421,628,1440,810,,,,,,,,4,6.737,0.372839506,-0.438271605,1,0,0,next_trial_button,0,47,47,54,1,landscape,visiblesun,noclouds,6,"695.0043821209465,500",
,,,,,,,de,de,de,f,42,,2021-07-13_07h27.47.261,online_experiment,2021.1.4,Linux x86_64,61.05006105,FALSE,,Mozilla/5.0 (X11; Linux x86_64; rv:89.0) Gecko/20100101 Firefox/89.0,1421,628,1440,810,,,,,,,,7,5.11,0.420987654,-0.428395062,1,0,0,next_trial_button,0,48,48,1,1,beach,invisiblesun,yesclouds,0,"666.6666666666666,500",
,,,,,,,de,de,de,f,42,,2021-07-13_07h27.47.261,online_experiment,2021.1.4,Linux x86_64,61.05006105,FALSE,,Mozilla/5.0 (X11; Linux x86_64; rv:89.0) Gecko/20100101 Firefox/89.0,1421,628,1440,810,,,,,,,,4,2.85,0.432098765,-0.401234568,1,0,0,next_trial_button,0,49,49,69,1,landscape,invisiblesun,yesclouds,8,"750,500",
,,,,,,,de,de,de,f,42,,2021-07-13_07h27.47.261,online_experiment,2021.1.4,Linux x86_64,61.05006105,FALSE,,Mozilla/5.0 (X11; Linux x86_64; rv:89.0) Gecko/20100101 Firefox/89.0,1421,628,1440,810,,,,,,,,4,3.151,0.409876543,-0.413580247,1,0,0,next_trial_button,0,50,50,72,1,beach,invisiblesun,noclouds,9,"888.8888888888888,500",
,,,,,,,de,de,de,f,42,,2021-07-13_07h27.47.261,online_experiment,2021.1.4,Linux x86_64,61.05006105,FALSE,,Mozilla/5.0 (X11; Linux x86_64; rv:89.0) Gecko/20100101 Firefox/89.0,1421,628,1440,810,,,,,,,,7,3.541,0.409876543,-0.432098765,1,0,0,next_trial_button,0,51,51,8,1,beach,invisiblesun,noclouds,1,"1215.1898734177216,500",
,,,,,,,de,de,de,f,42,,2021-07-13_07h27.47.261,online_experiment,2021.1.4,Linux x86_64,61.05006105,FALSE,,Mozilla/5.0 (X11; Linux x86_64; rv:89.0) Gecko/20100101 Firefox/89.0,1421,628,1440,810,,,,,,,,5,3.215,0.440740741,-0.44691358,1,0,0,next_trial_button,0,52,52,43,1,beach,visiblesun,yesclouds,5,"750,500",
,,,,,,,de,de,de,f,42,,2021-07-13_07h27.47.261,online_experiment,2021.1.4,Linux x86_64,61.05006105,FALSE,,Mozilla/5.0 (X11; Linux x86_64; rv:89.0) Gecko/20100101 Firefox/89.0,1421,628,1440,810,,,,,,,,2,1.932,0.460493827,-0.412345679,1,0,0,next_trial_button,0,53,53,32,1,beach,invisiblesun,noclouds,4,"750,500",
,,,,,,,de,de,de,f,42,,2021-07-13_07h27.47.261,online_experiment,2021.1.4,Linux x86_64,61.05006105,FALSE,,Mozilla/5.0 (X11; Linux x86_64; rv:89.0) Gecko/20100101 Firefox/89.0,1421,628,1440,810,,,,,,,,8,4.981,0.450617284,-0.444444444,1,0,0,next_trial_button,0,54,54,11,1,beach,visiblesun,yesclouds,1,"989.8132427843803,500",
,,,,,,,de,de,de,f,42,,2021-07-13_07h27.47.261,online_experiment,2021.1.4,Linux x86_64,61.05006105,FALSE,,Mozilla/5.0 (X11; Linux x86_64; rv:89.0) Gecko/20100101 Firefox/89.0,1421,628,1440,810,,,,,,,,6,4.541,0.343209877,-0.414814815,1,0,0,next_trial_button,0,55,55,18,1,beach,visiblesun,noclouds,2,"666.6666666666666,500",
,,,,,,,de,de,de,f,42,,2021-07-13_07h27.47.261,online_experiment,2021.1.4,Linux x86_64,61.05006105,FALSE,,Mozilla/5.0 (X11; Linux x86_64; rv:89.0) Gecko/20100101 Firefox/89.0,1421,628,1440,810,,,,,,,,3,1.912,0.428395062,-0.428395062,1,0,0,next_trial_button,0,56,56,30,1,landscape,visiblesun,noclouds,3,"346.3035019455253,500",
,,,,,,,de,de,de,f,42,,2021-07-13_07h27.47.261,online_experiment,2021.1.4,Linux x86_64,61.05006105,FALSE,,Mozilla/5.0 (X11; Linux x86_64; rv:89.0) Gecko/20100101 Firefox/89.0,1421,628,1440,810,,,,,,,,4,2.093,0.403703704,-0.422222222,1,0,0,next_trial_button,0,57,57,66,1,beach,visiblesun,noclouds,8,"1028.5714285714284,500",
,,,,,,,de,de,de,f,42,,2021-07-13_07h27.47.261,online_experiment,2021.1.4,Linux x86_64,61.05006105,FALSE,,Mozilla/5.0 (X11; Linux x86_64; rv:89.0) Gecko/20100101 Firefox/89.0,1421,628,1440,810,,,,,,,,4,6.544,0.359259259,-0.412345679,1,0,0,next_trial_button,0,58,58,33,1,beach,invisiblesun,yesclouds,4,"751.5473032714411,500",
,,,,,,,de,de,de,f,42,,2021-07-13_07h27.47.261,online_experiment,2021.1.4,Linux x86_64,61.05006105,FALSE,,Mozilla/5.0 (X11; Linux x86_64; rv:89.0) Gecko/20100101 Firefox/89.0,1421,628,1440,810,,,,,,,,7,5.331,0.411111111,-0.408641975,1,0,0,next_trial_button,0,59,59,50,1,beach,visiblesun,noclouds,6,"666.6666666666666,500",
,,,,,,,de,de,de,f,42,,2021-07-13_07h27.47.261,online_experiment,2021.1.4,Linux x86_64,61.05006105,FALSE,,Mozilla/5.0 (X11; Linux x86_64; rv:89.0) Gecko/20100101 Firefox/89.0,1421,628,1440,810,,,,,,,,7,2.23,0.380246914,-0.458024691,1,0,0,next_trial_button,0,60,60,73,1,beach,invisiblesun,yesclouds,9,"1028.5714285714284,500",
,,,,,,,de,de,de,f,42,,2021-07-13_07h27.47.261,online_experiment,2021.1.4,Linux x86_64,61.05006105,FALSE,,Mozilla/5.0 (X11; Linux x86_64; rv:89.0) Gecko/20100101 Firefox/89.0,1421,628,1440,810,,,,,,,,3,2.608,0.383950617,-0.37654321,1,0,0,next_trial_button,0,61,61,21,1,landscape,invisiblesun,yesclouds,2,"750,500",
,,,,,,,de,de,de,f,42,,2021-07-13_07h27.47.261,online_experiment,2021.1.4,Linux x86_64,61.05006105,FALSE,,Mozilla/5.0 (X11; Linux x86_64; rv:89.0) Gecko/20100101 Firefox/89.0,1421,628,1440,810,,,,,,,,7,3.212,0.364197531,-0.408641975,1,0,0,next_trial_button,0,62,62,62,1,landscape,visiblesun,noclouds,7,"417.42389822807814,500",
,,,,,,,de,de,de,f,42,,2021-07-13_07h27.47.261,online_experiment,2021.1.4,Linux x86_64,61.05006105,FALSE,,Mozilla/5.0 (X11; Linux x86_64; rv:89.0) Gecko/20100101 Firefox/89.0,1421,628,1440,810,,,,,,,,8,2.648,0.356790123,-0.417283951,1,0,0,next_trial_button,0,63,63,65,1,beach,invisiblesun,yesclouds,8,"750,500",
,,,,,,,de,de,de,f,42,,2021-07-13_07h27.47.261,online_experiment,2021.1.4,Linux x86_64,61.05006105,FALSE,,Mozilla/5.0 (X11; Linux x86_64; rv:89.0) Gecko/20100101 Firefox/89.0,1421,628,1440,810,,,,,,,,4,3.218,0.34691358,-0.428395062,1,0,0,next_trial_button,0,64,64,31,1,landscape,visiblesun,yesclouds,3,"638.0622837370242,500",
,,,,,,,de,de,de,f,42,,2021-07-13_07h27.47.261,online_experiment,2021.1.4,Linux x86_64,61.05006105,FALSE,,Mozilla/5.0 (X11; Linux x86_64; rv:89.0) Gecko/20100101 Firefox/89.0,1421,628,1440,810,,,,,,,,4,3.645,0.35308642,-0.417283951,1,0,0,next_trial_button,0,65,65,14,1,landscape,visiblesun,noclouds,1,"745.9919839679359,500",
,,,,,,,de,de,de,f,42,,2021-07-13_07h27.47.261,online_experiment,2021.1.4,Linux x86_64,61.05006105,FALSE,,Mozilla/5.0 (X11; Linux x86_64; rv:89.0) Gecko/20100101 Firefox/89.0,1421,628,1440,810,,,,,,,,5,3.337,0.439506173,-0.412345679,1,0,0,next_trial_button,0,66,66,47,1,landscape,visiblesun,yesclouds,5,"666.6666666666666,500",
,,,,,,,de,de,de,f,42,,2021-07-13_07h27.47.261,online_experiment,2021.1.4,Linux x86_64,61.05006105,FALSE,,Mozilla/5.0 (X11; Linux x86_64; rv:89.0) Gecko/20100101 Firefox/89.0,1421,628,1440,810,,,,,,,,4,2.192,0.469135802,-0.417283951,1,0,0,next_trial_button,0,67,67,46,1,landscape,visiblesun,noclouds,5,"750,500",
,,,,,,,de,de,de,f,42,,2021-07-13_07h27.47.261,online_experiment,2021.1.4,Linux x86_64,61.05006105,FALSE,,Mozilla/5.0 (X11; Linux x86_64; rv:89.0) Gecko/20100101 Firefox/89.0,1421,628,1440,810,,,,,,,,6,3.513,0.338271605,-0.45308642,1,0,0,next_trial_button,0,68,68,25,1,beach,invisiblesun,yesclouds,3,"750.4690431519699,500",
,,,,,,,de,de,de,f,42,,2021-07-13_07h27.47.261,online_experiment,2021.1.4,Linux x86_64,61.05006105,FALSE,,Mozilla/5.0 (X11; Linux x86_64; rv:89.0) Gecko/20100101 Firefox/89.0,1421,628,1440,810,,,,,,,,5,11.325,0.354320988,-0.4,1,0,0,next_trial_button,0,69,69,48,1,beach,invisiblesun,noclouds,6,"1028.5714285714284,500",
,,,,,,,de,de,de,f,42,,2021-07-13_07h27.47.261,online_experiment,2021.1.4,Linux x86_64,61.05006105,FALSE,,Mozilla/5.0 (X11; Linux x86_64; rv:89.0) Gecko/20100101 Firefox/89.0,1421,628,1440,810,,,,,,,,7,7.228,0.465432099,-0.416049383,1,0,0,next_trial_button,0,70,70,67,1,beach,visiblesun,yesclouds,8,"748.1481481481482,500",
,,,,,,,de,de,de,f,42,,2021-07-13_07h27.47.261,online_experiment,2021.1.4,Linux x86_64,61.05006105,FALSE,,Mozilla/5.0 (X11; Linux x86_64; rv:89.0) Gecko/20100101 Firefox/89.0,1421,628,1440,810,,,,,,,,6,3.162,0.343209877,-0.419753086,1,0,0,next_trial_button,0,71,71,37,1,landscape,invisiblesun,yesclouds,4,"669.4214876033058,500",
,,,,,,,de,de,de,f,42,,2021-07-13_07h27.47.261,online_experiment,2021.1.4,Linux x86_64,61.05006105,FALSE,,Mozilla/5.0 (X11; Linux x86_64; rv:89.0) Gecko/20100101 Firefox/89.0,1421,628,1440,810,,,,,,,,2,2.598,0.358024691,-0.439506173,1,0,0,next_trial_button,0,72,72,60,1,landscape,invisiblesun,noclouds,7,"666.7268134247564,500",
,,,,,,,de,de,de,f,42,,2021-07-13_07h27.47.261,online_experiment,2021.1.4,Linux x86_64,61.05006105,FALSE,,Mozilla/5.0 (X11; Linux x86_64; rv:89.0) Gecko/20100101 Firefox/89.0,1421,628,1440,810,,,,,,,,8,2.816,0.375308642,-0.417283951,1,0,0,next_trial_button,0,73,73,0,1,beach,invisiblesun,noclouds,0,"750,500",
,,,,,,,de,de,de,f,42,,2021-07-13_07h27.47.261,online_experiment,2021.1.4,Linux x86_64,61.05006105,FALSE,,Mozilla/5.0 (X11; Linux x86_64; rv:89.0) Gecko/20100101 Firefox/89.0,1421,628,1440,810,,,,,,,,7,2.969,0.380246914,-0.403703704,1,0,0,next_trial_button,0,74,74,57,1,beach,invisiblesun,yesclouds,7,"749.707488299532,500",
,,,,,,,de,de,de,f,42,,2021-07-13_07h27.47.261,online_experiment,2021.1.4,Linux x86_64,61.05006105,FALSE,,Mozilla/5.0 (X11; Linux x86_64; rv:89.0) Gecko/20100101 Firefox/89.0,1421,628,1440,810,,,,,,,,4,4.695,0.333333333,-0.409876543,1,0,0,next_trial_button,0,75,75,4,1,landscape,invisiblesun,noclouds,0,"1499.6127033307514,500",
,,,,,,,de,de,de,f,42,,2021-07-13_07h27.47.261,online_experiment,2021.1.4,Linux x86_64,61.05006105,FALSE,,Mozilla/5.0 (X11; Linux x86_64; rv:89.0) Gecko/20100101 Firefox/89.0,1421,628,1440,810,,,,,,,,3,3.947,0.483950617,-0.441975309,1,0,0,next_trial_button,0,76,76,35,1,beach,visiblesun,yesclouds,4,"750,500",
,,,,,,,de,de,de,f,42,,2021-07-13_07h27.47.261,online_experiment,2021.1.4,Linux x86_64,61.05006105,FALSE,,Mozilla/5.0 (X11; Linux x86_64; rv:89.0) Gecko/20100101 Firefox/89.0,1421,628,1440,810,,,,,,,,6,2.896,0.4,-0.420987654,1,0,0,next_trial_button,0,77,77,34,1,beach,visiblesun,noclouds,4,"749.6251874062968,500",
,,,,,,,de,de,de,f,42,,2021-07-13_07h27.47.261,online_experiment,2021.1.4,Linux x86_64,61.05006105,FALSE,,Mozilla/5.0 (X11; Linux x86_64; rv:89.0) Gecko/20100101 Firefox/89.0,1421,628,1440,810,,,,,,,,6,2.727,0.409876543,-0.381481481,1,0,0,next_trial_button,0,78,78,53,1,landscape,invisiblesun,yesclouds,6,"750.0695023630803,500",
,,,,,,,de,de,de,f,42,,2021-07-13_07h27.47.261,online_experiment,2021.1.4,Linux x86_64,61.05006105,FALSE,,Mozilla/5.0 (X11; Linux x86_64; rv:89.0) Gecko/20100101 Firefox/89.0,1421,628,1440,810,,,,,,,,3,3.611,0.391358025,-0.398765432,1,0,0,next_trial_button,0,79,79,12,1,landscape,invisiblesun,noclouds,1,"666.6666666666666,500",
,,,,,,,de,de,de,f,42,,2021-07-13_07h27.47.261,online_experiment,2021.1.4,Linux x86_64,61.05006105,FALSE,,Mozilla/5.0 (X11; Linux x86_64; rv:89.0) Gecko/20100101 Firefox/89.0,1421,628,1440,810,,,,,,,,,,,,,,,,,,,,,,,,,"666.6666666666666,500",404.55
