language_mouse.x,language_mouse.y,language_mouse.leftButton,language_mouse.midButton,language_mouse.rightButton,language_mouse.time,language_mouse.clicked_name,nationality,mother_tongue,homeland,gender,age,email,date,expName,psychopyVersion,OS,frameRate,fbclid,cancel_experiment,cancel_reasons,client_agent_information,windowWidth,windowHeight,xRes,yRes,start_exp_mouse.x,start_exp_mouse.y,start_exp_mouse.leftButton,start_exp_mouse.midButton,start_exp_mouse.rightButton,start_exp_mouse.time,start_exp_mouse.clicked_name,rating_slider.response,rating_slider.rt,next_trial_mouse.x,next_trial_mouse.y,next_trial_mouse.leftButton,next_trial_mouse.midButton,next_trial_mouse.rightButton,next_trial_mouse.clicked_name,trials.thisRepN,trials.thisTrialN,trials.thisN,trials.thisIndex,trials.ran,environment,sunVisibility,cloudVisibility,imageId,imgSize,globalClockTime
0.281481499,-0.193518529,1,0,0,2.8713,gr_flag,gr,other,gr,f,30,,2021-08-31_19h34.30.086,online_experiment,2021.1.4,Win32,60.09615385,IwAR1g6JXnsm9GC64iW07idP7sHdg5giBRkKhRXazKp7gtRyQNf5ujD3vr4wM,FALSE,,"Mozilla/5.0 (Windows NT 10.0; Win64; x64) AppleWebKit/537.36 (KHTML, like Gecko) Chrome/92.0.4515.159 Safari/537.36",1536,664,1536,864,,,,,,,,,,,,,,,,,,,,,,,,,,
,,,,,,,gr,other,gr,f,30,,2021-08-31_19h34.30.086,online_experiment,2021.1.4,Win32,60.09615385,IwAR1g6JXnsm9GC64iW07idP7sHdg5giBRkKhRXazKp7gtRyQNf5ujD3vr4wM,FALSE,,"Mozilla/5.0 (Windows NT 10.0; Win64; x64) AppleWebKit/537.36 (KHTML, like Gecko) Chrome/92.0.4515.159 Safari/537.36",1536,664,1536,864,0.073148162,-0.409259329,1,0,0,24.5416,cont_gr,8,7.4266,0.362037056,-0.403703717,1,0,0,next_trial_button,0,0,0,16,1,beach,invisiblesun,noclouds,2,"752.8089887640449,500",
,,,,,,,gr,other,gr,f,30,,2021-08-31_19h34.30.086,online_experiment,2021.1.4,Win32,60.09615385,IwAR1g6JXnsm9GC64iW07idP7sHdg5giBRkKhRXazKp7gtRyQNf5ujD3vr4wM,FALSE,,"Mozilla/5.0 (Windows NT 10.0; Win64; x64) AppleWebKit/537.36 (KHTML, like Gecko) Chrome/92.0.4515.159 Safari/537.36",1536,664,1536,864,,,,,,,,8,5.9017,0.366666685,-0.426851866,1,0,0,next_trial_button,0,1,1,63,1,landscape,visiblesun,yesclouds,7,"331.94444444444446,500",
,,,,,,,gr,other,gr,f,30,,2021-08-31_19h34.30.086,online_experiment,2021.1.4,Win32,60.09615385,IwAR1g6JXnsm9GC64iW07idP7sHdg5giBRkKhRXazKp7gtRyQNf5ujD3vr4wM,FALSE,,"Mozilla/5.0 (Windows NT 10.0; Win64; x64) AppleWebKit/537.36 (KHTML, like Gecko) Chrome/92.0.4515.159 Safari/537.36",1536,664,1536,864,,,,,,,,5,5.5797,0.3814815,-0.412037051,1,0,0,next_trial_button,0,2,2,7,1,landscape,visiblesun,yesclouds,0,"743.421052631579,500",
,,,,,,,gr,other,gr,f,30,,2021-08-31_19h34.30.086,online_experiment,2021.1.4,Win32,60.09615385,IwAR1g6JXnsm9GC64iW07idP7sHdg5giBRkKhRXazKp7gtRyQNf5ujD3vr4wM,FALSE,,"Mozilla/5.0 (Windows NT 10.0; Win64; x64) AppleWebKit/537.36 (KHTML, like Gecko) Chrome/92.0.4515.159 Safari/537.36",1536,664,1536,864,,,,,,,,8,6.6583,0.335185203,-0.412037051,1,0,0,next_trial_button,0,3,3,75,1,beach,visiblesun,yesclouds,9,"1029.6010296010297,500",
,,,,,,,gr,other,gr,f,30,,2021-08-31_19h34.30.086,online_experiment,2021.1.4,Win32,60.09615385,IwAR1g6JXnsm9GC64iW07idP7sHdg5giBRkKhRXazKp7gtRyQNf5ujD3vr4wM,FALSE,,"Mozilla/5.0 (Windows NT 10.0; Win64; x64) AppleWebKit/537.36 (KHTML, like Gecko) Chrome/92.0.4515.159 Safari/537.36",1536,664,1536,864,,,,,,,,7,4.5551,0.435185205,-0.41666668,1,0,0,next_trial_button,0,4,4,61,1,landscape,invisiblesun,yesclouds,7,"500,500",
,,,,,,,gr,other,gr,f,30,,2021-08-31_19h34.30.086,online_experiment,2021.1.4,Win32,60.09615385,IwAR1g6JXnsm9GC64iW07idP7sHdg5giBRkKhRXazKp7gtRyQNf5ujD3vr4wM,FALSE,,"Mozilla/5.0 (Windows NT 10.0; Win64; x64) AppleWebKit/537.36 (KHTML, like Gecko) Chrome/92.0.4515.159 Safari/537.36",1536,664,1536,864,,,,,,,,8,4.6072,0.346296428,-0.419444458,1,0,0,next_trial_button,0,5,5,65,1,beach,invisiblesun,yesclouds,8,"750,500",
,,,,,,,gr,other,gr,f,30,,2021-08-31_19h34.30.086,online_experiment,2021.1.4,Win32,60.09615385,IwAR1g6JXnsm9GC64iW07idP7sHdg5giBRkKhRXazKp7gtRyQNf5ujD3vr4wM,FALSE,,"Mozilla/5.0 (Windows NT 10.0; Win64; x64) AppleWebKit/537.36 (KHTML, like Gecko) Chrome/92.0.4515.159 Safari/537.36",1536,664,1536,864,,,,,,,,8,6.284,0.355555687,-0.418518589,1,0,0,next_trial_button,0,6,6,19,1,beach,visiblesun,yesclouds,2,"770.1393095093882,500",
,,,,,,,gr,other,gr,f,30,,2021-08-31_19h34.30.086,online_experiment,2021.1.4,Win32,60.09615385,IwAR1g6JXnsm9GC64iW07idP7sHdg5giBRkKhRXazKp7gtRyQNf5ujD3vr4wM,FALSE,,"Mozilla/5.0 (Windows NT 10.0; Win64; x64) AppleWebKit/537.36 (KHTML, like Gecko) Chrome/92.0.4515.159 Safari/537.36",1536,664,1536,864,,,,,,,,7,8.4955,0.364814947,-0.426851866,1,0,0,next_trial_button,0,7,7,33,1,beach,invisiblesun,yesclouds,4,"751.5473032714411,500",
,,,,,,,gr,other,gr,f,30,,2021-08-31_19h34.30.086,online_experiment,2021.1.4,Win32,60.09615385,IwAR1g6JXnsm9GC64iW07idP7sHdg5giBRkKhRXazKp7gtRyQNf5ujD3vr4wM,FALSE,,"Mozilla/5.0 (Windows NT 10.0; Win64; x64) AppleWebKit/537.36 (KHTML, like Gecko) Chrome/92.0.4515.159 Safari/537.36",1536,664,1536,864,,,,,,,,8,6.3846,0.387963095,-0.409259329,1,0,0,next_trial_button,0,8,8,67,1,beach,visiblesun,yesclouds,8,"748.1481481481482,500",
,,,,,,,gr,other,gr,f,30,,2021-08-31_19h34.30.086,online_experiment,2021.1.4,Win32,60.09615385,IwAR1g6JXnsm9GC64iW07idP7sHdg5giBRkKhRXazKp7gtRyQNf5ujD3vr4wM,FALSE,,"Mozilla/5.0 (Windows NT 10.0; Win64; x64) AppleWebKit/537.36 (KHTML, like Gecko) Chrome/92.0.4515.159 Safari/537.36",1536,664,1536,864,,,,,,,,7,6.9666,0.379629649,-0.428703718,1,0,0,next_trial_button,0,9,9,42,1,beach,visiblesun,noclouds,5,"834.4594594594595,500",
,,,,,,,gr,other,gr,f,30,,2021-08-31_19h34.30.086,online_experiment,2021.1.4,Win32,60.09615385,IwAR1g6JXnsm9GC64iW07idP7sHdg5giBRkKhRXazKp7gtRyQNf5ujD3vr4wM,FALSE,,"Mozilla/5.0 (Windows NT 10.0; Win64; x64) AppleWebKit/537.36 (KHTML, like Gecko) Chrome/92.0.4515.159 Safari/537.36",1536,664,1536,864,,,,,,,,7,9.2231,0.403703723,-0.405555569,1,0,0,next_trial_button,0,10,10,34,1,beach,visiblesun,noclouds,4,"749.6251874062968,500",
,,,,,,,gr,other,gr,f,30,,2021-08-31_19h34.30.086,online_experiment,2021.1.4,Win32,60.09615385,IwAR1g6JXnsm9GC64iW07idP7sHdg5giBRkKhRXazKp7gtRyQNf5ujD3vr4wM,FALSE,,"Mozilla/5.0 (Windows NT 10.0; Win64; x64) AppleWebKit/537.36 (KHTML, like Gecko) Chrome/92.0.4515.159 Safari/537.36",1536,664,1536,864,,,,,,,,5,5.3251,0.409259279,-0.424074088,1,0,0,next_trial_button,0,11,11,78,1,landscape,visiblesun,noclouds,9,"666.6666666666666,500",
,,,,,,,gr,other,gr,f,30,,2021-08-31_19h34.30.086,online_experiment,2021.1.4,Win32,60.09615385,IwAR1g6JXnsm9GC64iW07idP7sHdg5giBRkKhRXazKp7gtRyQNf5ujD3vr4wM,FALSE,,"Mozilla/5.0 (Windows NT 10.0; Win64; x64) AppleWebKit/537.36 (KHTML, like Gecko) Chrome/92.0.4515.159 Safari/537.36",1536,664,1536,864,,,,,,,,6,7.54,0.440740761,-0.383333346,1,0,0,next_trial_button,0,12,12,18,1,beach,visiblesun,noclouds,2,"666.6666666666666,500",
,,,,,,,gr,other,gr,f,30,,2021-08-31_19h34.30.086,online_experiment,2021.1.4,Win32,60.09615385,IwAR1g6JXnsm9GC64iW07idP7sHdg5giBRkKhRXazKp7gtRyQNf5ujD3vr4wM,FALSE,,"Mozilla/5.0 (Windows NT 10.0; Win64; x64) AppleWebKit/537.36 (KHTML, like Gecko) Chrome/92.0.4515.159 Safari/537.36",1536,664,1536,864,,,,,,,,6,4.6137,0.391666686,-0.41666668,1,0,0,next_trial_button,0,13,13,28,1,landscape,invisiblesun,noclouds,3,"888.8888888888888,500",
,,,,,,,gr,other,gr,f,30,,2021-08-31_19h34.30.086,online_experiment,2021.1.4,Win32,60.09615385,IwAR1g6JXnsm9GC64iW07idP7sHdg5giBRkKhRXazKp7gtRyQNf5ujD3vr4wM,FALSE,,"Mozilla/5.0 (Windows NT 10.0; Win64; x64) AppleWebKit/537.36 (KHTML, like Gecko) Chrome/92.0.4515.159 Safari/537.36",1536,664,1536,864,,,,,,,,7,5.0367,0.387963095,-0.401851865,1,0,0,next_trial_button,0,14,14,10,1,beach,visiblesun,noclouds,1,"747.0261697065821,500",
,,,,,,,gr,other,gr,f,30,,2021-08-31_19h34.30.086,online_experiment,2021.1.4,Win32,60.09615385,IwAR1g6JXnsm9GC64iW07idP7sHdg5giBRkKhRXazKp7gtRyQNf5ujD3vr4wM,FALSE,,"Mozilla/5.0 (Windows NT 10.0; Win64; x64) AppleWebKit/537.36 (KHTML, like Gecko) Chrome/92.0.4515.159 Safari/537.36",1536,664,1536,864,,,,,,,,6,5.1651,0.439814835,-0.435185199,1,0,0,next_trial_button,0,15,15,79,1,landscape,visiblesun,yesclouds,9,"1028.5714285714284,500",
,,,,,,,gr,other,gr,f,30,,2021-08-31_19h34.30.086,online_experiment,2021.1.4,Win32,60.09615385,IwAR1g6JXnsm9GC64iW07idP7sHdg5giBRkKhRXazKp7gtRyQNf5ujD3vr4wM,FALSE,,"Mozilla/5.0 (Windows NT 10.0; Win64; x64) AppleWebKit/537.36 (KHTML, like Gecko) Chrome/92.0.4515.159 Safari/537.36",1536,664,1536,864,,,,,,,,7,8.8659,0.369444576,-0.410185199,1,0,0,next_trial_button,0,16,16,23,1,landscape,visiblesun,yesclouds,2,"767.97829036635,500",
,,,,,,,gr,other,gr,f,30,,2021-08-31_19h34.30.086,online_experiment,2021.1.4,Win32,60.09615385,IwAR1g6JXnsm9GC64iW07idP7sHdg5giBRkKhRXazKp7gtRyQNf5ujD3vr4wM,FALSE,,"Mozilla/5.0 (Windows NT 10.0; Win64; x64) AppleWebKit/537.36 (KHTML, like Gecko) Chrome/92.0.4515.159 Safari/537.36",1536,664,1536,864,,,,,,,,5,5.2114,0.406481614,-0.415740754,1,0,0,next_trial_button,0,17,17,32,1,beach,invisiblesun,noclouds,4,"750,500",
,,,,,,,gr,other,gr,f,30,,2021-08-31_19h34.30.086,online_experiment,2021.1.4,Win32,60.09615385,IwAR1g6JXnsm9GC64iW07idP7sHdg5giBRkKhRXazKp7gtRyQNf5ujD3vr4wM,FALSE,,"Mozilla/5.0 (Windows NT 10.0; Win64; x64) AppleWebKit/537.36 (KHTML, like Gecko) Chrome/92.0.4515.159 Safari/537.36",1536,664,1536,864,,,,,,,,7,20.7408,0.338888907,-0.413888959,1,0,0,next_trial_button,0,18,18,4,1,landscape,invisiblesun,noclouds,0,"1276.9171185127807,500",
,,,,,,,gr,other,gr,f,30,,2021-08-31_19h34.30.086,online_experiment,2021.1.4,Win32,60.09615385,IwAR1g6JXnsm9GC64iW07idP7sHdg5giBRkKhRXazKp7gtRyQNf5ujD3vr4wM,FALSE,,"Mozilla/5.0 (Windows NT 10.0; Win64; x64) AppleWebKit/537.36 (KHTML, like Gecko) Chrome/92.0.4515.159 Safari/537.36",1536,664,1536,864,,,,,,,,6,7.5387,0.377777797,-0.4046297,1,0,0,next_trial_button,0,19,19,36,1,landscape,invisiblesun,noclouds,4,"281.25,500",
,,,,,,,gr,other,gr,f,30,,2021-08-31_19h34.30.086,online_experiment,2021.1.4,Win32,60.09615385,IwAR1g6JXnsm9GC64iW07idP7sHdg5giBRkKhRXazKp7gtRyQNf5ujD3vr4wM,FALSE,,"Mozilla/5.0 (Windows NT 10.0; Win64; x64) AppleWebKit/537.36 (KHTML, like Gecko) Chrome/92.0.4515.159 Safari/537.36",1536,664,1536,864,,,,,,,,6,5.9206,0.50462965,-0.423148218,1,0,0,next_trial_button,0,20,20,48,1,beach,invisiblesun,noclouds,6,"1028.5714285714284,500",
,,,,,,,gr,other,gr,f,30,,2021-08-31_19h34.30.086,online_experiment,2021.1.4,Win32,60.09615385,IwAR1g6JXnsm9GC64iW07idP7sHdg5giBRkKhRXazKp7gtRyQNf5ujD3vr4wM,FALSE,,"Mozilla/5.0 (Windows NT 10.0; Win64; x64) AppleWebKit/537.36 (KHTML, like Gecko) Chrome/92.0.4515.159 Safari/537.36",1536,664,1536,864,,,,,,,,6,3.7718,0.38611113,-0.42129631,1,0,0,next_trial_button,0,21,21,8,1,beach,invisiblesun,noclouds,1,"1215.1898734177216,500",
,,,,,,,gr,other,gr,f,30,,2021-08-31_19h34.30.086,online_experiment,2021.1.4,Win32,60.09615385,IwAR1g6JXnsm9GC64iW07idP7sHdg5giBRkKhRXazKp7gtRyQNf5ujD3vr4wM,FALSE,,"Mozilla/5.0 (Windows NT 10.0; Win64; x64) AppleWebKit/537.36 (KHTML, like Gecko) Chrome/92.0.4515.159 Safari/537.36",1536,664,1536,864,,,,,,,,7,6.3967,0.333333352,-0.411111125,1,0,0,next_trial_button,0,22,22,15,1,landscape,visiblesun,yesclouds,1,"333.3333333333333,500",
,,,,,,,gr,other,gr,f,30,,2021-08-31_19h34.30.086,online_experiment,2021.1.4,Win32,60.09615385,IwAR1g6JXnsm9GC64iW07idP7sHdg5giBRkKhRXazKp7gtRyQNf5ujD3vr4wM,FALSE,,"Mozilla/5.0 (Windows NT 10.0; Win64; x64) AppleWebKit/537.36 (KHTML, like Gecko) Chrome/92.0.4515.159 Safari/537.36",1536,664,1536,864,,,,,,,,8,4.7078,0.330555574,-0.409259329,1,0,0,next_trial_button,0,23,23,9,1,beach,invisiblesun,yesclouds,1,"750,500",
,,,,,,,gr,other,gr,f,30,,2021-08-31_19h34.30.086,online_experiment,2021.1.4,Win32,60.09615385,IwAR1g6JXnsm9GC64iW07idP7sHdg5giBRkKhRXazKp7gtRyQNf5ujD3vr4wM,FALSE,,"Mozilla/5.0 (Windows NT 10.0; Win64; x64) AppleWebKit/537.36 (KHTML, like Gecko) Chrome/92.0.4515.159 Safari/537.36",1536,664,1536,864,,,,,,,,7,2.8957,0.376851871,-0.403703717,1,0,0,next_trial_button,0,24,24,35,1,beach,visiblesun,yesclouds,4,"750,500",
,,,,,,,gr,other,gr,f,30,,2021-08-31_19h34.30.086,online_experiment,2021.1.4,Win32,60.09615385,IwAR1g6JXnsm9GC64iW07idP7sHdg5giBRkKhRXazKp7gtRyQNf5ujD3vr4wM,FALSE,,"Mozilla/5.0 (Windows NT 10.0; Win64; x64) AppleWebKit/537.36 (KHTML, like Gecko) Chrome/92.0.4515.159 Safari/537.36",1536,664,1536,864,,,,,,,,6,5.478,0.412962982,-0.420370384,1,0,0,next_trial_button,0,25,25,17,1,beach,invisiblesun,yesclouds,2,"684.8635235732011,500",
,,,,,,,gr,other,gr,f,30,,2021-08-31_19h34.30.086,online_experiment,2021.1.4,Win32,60.09615385,IwAR1g6JXnsm9GC64iW07idP7sHdg5giBRkKhRXazKp7gtRyQNf5ujD3vr4wM,FALSE,,"Mozilla/5.0 (Windows NT 10.0; Win64; x64) AppleWebKit/537.36 (KHTML, like Gecko) Chrome/92.0.4515.159 Safari/537.36",1536,664,1536,864,,,,,,,,7,4.0039,0.412037056,-0.411111125,1,0,0,next_trial_button,0,26,26,59,1,beach,visiblesun,yesclouds,7,"888.9689978370584,500",
,,,,,,,gr,other,gr,f,30,,2021-08-31_19h34.30.086,online_experiment,2021.1.4,Win32,60.09615385,IwAR1g6JXnsm9GC64iW07idP7sHdg5giBRkKhRXazKp7gtRyQNf5ujD3vr4wM,FALSE,,"Mozilla/5.0 (Windows NT 10.0; Win64; x64) AppleWebKit/537.36 (KHTML, like Gecko) Chrome/92.0.4515.159 Safari/537.36",1536,664,1536,864,,,,,,,,7,6.2899,0.45740754,-0.424074088,1,0,0,next_trial_button,0,27,27,73,1,beach,invisiblesun,yesclouds,9,"1028.5714285714284,500",
,,,,,,,gr,other,gr,f,30,,2021-08-31_19h34.30.086,online_experiment,2021.1.4,Win32,60.09615385,IwAR1g6JXnsm9GC64iW07idP7sHdg5giBRkKhRXazKp7gtRyQNf5ujD3vr4wM,FALSE,,"Mozilla/5.0 (Windows NT 10.0; Win64; x64) AppleWebKit/537.36 (KHTML, like Gecko) Chrome/92.0.4515.159 Safari/537.36",1536,664,1536,864,,,,,,,,5,6.0037,0.403703723,-0.419444458,1,0,0,next_trial_button,0,28,28,14,1,landscape,visiblesun,noclouds,1,"745.9919839679359,500",
,,,,,,,gr,other,gr,f,30,,2021-08-31_19h34.30.086,online_experiment,2021.1.4,Win32,60.09615385,IwAR1g6JXnsm9GC64iW07idP7sHdg5giBRkKhRXazKp7gtRyQNf5ujD3vr4wM,FALSE,,"Mozilla/5.0 (Windows NT 10.0; Win64; x64) AppleWebKit/537.36 (KHTML, like Gecko) Chrome/92.0.4515.159 Safari/537.36",1536,664,1536,864,,,,,,,,5,3.5617,0.365740759,-0.409259329,1,0,0,next_trial_button,0,29,29,49,1,beach,invisiblesun,yesclouds,6,"858.4474885844749,500",
,,,,,,,gr,other,gr,f,30,,2021-08-31_19h34.30.086,online_experiment,2021.1.4,Win32,60.09615385,IwAR1g6JXnsm9GC64iW07idP7sHdg5giBRkKhRXazKp7gtRyQNf5ujD3vr4wM,FALSE,,"Mozilla/5.0 (Windows NT 10.0; Win64; x64) AppleWebKit/537.36 (KHTML, like Gecko) Chrome/92.0.4515.159 Safari/537.36",1536,664,1536,864,,,,,,,,7,4.432,0.385185204,-0.407407421,1,0,0,next_trial_button,0,30,30,25,1,beach,invisiblesun,yesclouds,3,"750.4690431519699,500",
,,,,,,,gr,other,gr,f,30,,2021-08-31_19h34.30.086,online_experiment,2021.1.4,Win32,60.09615385,IwAR1g6JXnsm9GC64iW07idP7sHdg5giBRkKhRXazKp7gtRyQNf5ujD3vr4wM,FALSE,,"Mozilla/5.0 (Windows NT 10.0; Win64; x64) AppleWebKit/537.36 (KHTML, like Gecko) Chrome/92.0.4515.159 Safari/537.36",1536,664,1536,864,,,,,,,,6,14.0095,0.365740759,-0.406481495,1,0,0,next_trial_button,0,31,31,26,1,beach,visiblesun,noclouds,3,"888.8888888888888,500",
,,,,,,,gr,other,gr,f,30,,2021-08-31_19h34.30.086,online_experiment,2021.1.4,Win32,60.09615385,IwAR1g6JXnsm9GC64iW07idP7sHdg5giBRkKhRXazKp7gtRyQNf5ujD3vr4wM,FALSE,,"Mozilla/5.0 (Windows NT 10.0; Win64; x64) AppleWebKit/537.36 (KHTML, like Gecko) Chrome/92.0.4515.159 Safari/537.36",1536,664,1536,864,,,,,,,,7,7.2786,0.416666686,-0.424074088,1,0,0,next_trial_button,0,32,32,2,1,beach,visiblesun,noclouds,0,"375,500",
,,,,,,,gr,other,gr,f,30,,2021-08-31_19h34.30.086,online_experiment,2021.1.4,Win32,60.09615385,IwAR1g6JXnsm9GC64iW07idP7sHdg5giBRkKhRXazKp7gtRyQNf5ujD3vr4wM,FALSE,,"Mozilla/5.0 (Windows NT 10.0; Win64; x64) AppleWebKit/537.36 (KHTML, like Gecko) Chrome/92.0.4515.159 Safari/537.36",1536,664,1536,864,,,,,,,,7,7.6442,0.458333353,-0.389814828,1,0,0,next_trial_button,0,33,33,29,1,landscape,invisiblesun,yesclouds,3,"749.8660953401178,500",
,,,,,,,gr,other,gr,f,30,,2021-08-31_19h34.30.086,online_experiment,2021.1.4,Win32,60.09615385,IwAR1g6JXnsm9GC64iW07idP7sHdg5giBRkKhRXazKp7gtRyQNf5ujD3vr4wM,FALSE,,"Mozilla/5.0 (Windows NT 10.0; Win64; x64) AppleWebKit/537.36 (KHTML, like Gecko) Chrome/92.0.4515.159 Safari/537.36",1536,664,1536,864,,,,,,,,5,5.1198,0.426851871,-0.437037108,1,0,0,next_trial_button,0,34,34,38,1,landscape,visiblesun,noclouds,4,"733.3333333333333,500",
,,,,,,,gr,other,gr,f,30,,2021-08-31_19h34.30.086,online_experiment,2021.1.4,Win32,60.09615385,IwAR1g6JXnsm9GC64iW07idP7sHdg5giBRkKhRXazKp7gtRyQNf5ujD3vr4wM,FALSE,,"Mozilla/5.0 (Windows NT 10.0; Win64; x64) AppleWebKit/537.36 (KHTML, like Gecko) Chrome/92.0.4515.159 Safari/537.36",1536,664,1536,864,,,,,,,,6,4.3341,0.346296428,-0.405555569,1,0,0,next_trial_button,0,35,35,40,1,beach,invisiblesun,noclouds,5,"1028.5714285714284,500",
,,,,,,,gr,other,gr,f,30,,2021-08-31_19h34.30.086,online_experiment,2021.1.4,Win32,60.09615385,IwAR1g6JXnsm9GC64iW07idP7sHdg5giBRkKhRXazKp7gtRyQNf5ujD3vr4wM,FALSE,,"Mozilla/5.0 (Windows NT 10.0; Win64; x64) AppleWebKit/537.36 (KHTML, like Gecko) Chrome/92.0.4515.159 Safari/537.36",1536,664,1536,864,,,,,,,,7,4.2429,0.422222242,-0.39537044,1,0,0,next_trial_button,0,36,36,0,1,beach,invisiblesun,noclouds,0,"750,500",
,,,,,,,gr,other,gr,f,30,,2021-08-31_19h34.30.086,online_experiment,2021.1.4,Win32,60.09615385,IwAR1g6JXnsm9GC64iW07idP7sHdg5giBRkKhRXazKp7gtRyQNf5ujD3vr4wM,FALSE,,"Mozilla/5.0 (Windows NT 10.0; Win64; x64) AppleWebKit/537.36 (KHTML, like Gecko) Chrome/92.0.4515.159 Safari/537.36",1536,664,1536,864,,,,,,,,7,9.1657,0.432407427,-0.417592606,1,0,0,next_trial_button,0,37,37,66,1,beach,visiblesun,noclouds,8,"1028.5714285714284,500",
,,,,,,,gr,other,gr,f,30,,2021-08-31_19h34.30.086,online_experiment,2021.1.4,Win32,60.09615385,IwAR1g6JXnsm9GC64iW07idP7sHdg5giBRkKhRXazKp7gtRyQNf5ujD3vr4wM,FALSE,,"Mozilla/5.0 (Windows NT 10.0; Win64; x64) AppleWebKit/537.36 (KHTML, like Gecko) Chrome/92.0.4515.159 Safari/537.36",1536,664,1536,864,,,,,,,,6,6.7901,0.403703723,-0.412037051,1,0,0,next_trial_button,0,38,38,70,1,landscape,visiblesun,noclouds,8,"666.6666666666666,500",
,,,,,,,gr,other,gr,f,30,,2021-08-31_19h34.30.086,online_experiment,2021.1.4,Win32,60.09615385,IwAR1g6JXnsm9GC64iW07idP7sHdg5giBRkKhRXazKp7gtRyQNf5ujD3vr4wM,FALSE,,"Mozilla/5.0 (Windows NT 10.0; Win64; x64) AppleWebKit/537.36 (KHTML, like Gecko) Chrome/92.0.4515.159 Safari/537.36",1536,664,1536,864,,,,,,,,7,3.5938,0.380555574,-0.413888959,1,0,0,next_trial_button,0,39,39,53,1,landscape,invisiblesun,yesclouds,6,"750.0695023630803,500",
,,,,,,,gr,other,gr,f,30,,2021-08-31_19h34.30.086,online_experiment,2021.1.4,Win32,60.09615385,IwAR1g6JXnsm9GC64iW07idP7sHdg5giBRkKhRXazKp7gtRyQNf5ujD3vr4wM,FALSE,,"Mozilla/5.0 (Windows NT 10.0; Win64; x64) AppleWebKit/537.36 (KHTML, like Gecko) Chrome/92.0.4515.159 Safari/537.36",1536,664,1536,864,,,,,,,,7,6.6927,0.44537039,-0.388888902,1,0,0,next_trial_button,0,40,40,64,1,beach,invisiblesun,noclouds,8,"1028.5714285714284,500",
,,,,,,,gr,other,gr,f,30,,2021-08-31_19h34.30.086,online_experiment,2021.1.4,Win32,60.09615385,IwAR1g6JXnsm9GC64iW07idP7sHdg5giBRkKhRXazKp7gtRyQNf5ujD3vr4wM,FALSE,,"Mozilla/5.0 (Windows NT 10.0; Win64; x64) AppleWebKit/537.36 (KHTML, like Gecko) Chrome/92.0.4515.159 Safari/537.36",1536,664,1536,864,,,,,,,,6,3.0955,0.366666685,-0.413888959,1,0,0,next_trial_button,0,41,41,55,1,landscape,visiblesun,yesclouds,6,"749.8819083608881,500",
,,,,,,,gr,other,gr,f,30,,2021-08-31_19h34.30.086,online_experiment,2021.1.4,Win32,60.09615385,IwAR1g6JXnsm9GC64iW07idP7sHdg5giBRkKhRXazKp7gtRyQNf5ujD3vr4wM,FALSE,,"Mozilla/5.0 (Windows NT 10.0; Win64; x64) AppleWebKit/537.36 (KHTML, like Gecko) Chrome/92.0.4515.159 Safari/537.36",1536,664,1536,864,,,,,,,,8,2.2529,0.36111113,-0.422222236,1,0,0,next_trial_button,0,42,42,50,1,beach,visiblesun,noclouds,6,"666.6666666666666,500",
,,,,,,,gr,other,gr,f,30,,2021-08-31_19h34.30.086,online_experiment,2021.1.4,Win32,60.09615385,IwAR1g6JXnsm9GC64iW07idP7sHdg5giBRkKhRXazKp7gtRyQNf5ujD3vr4wM,FALSE,,"Mozilla/5.0 (Windows NT 10.0; Win64; x64) AppleWebKit/537.36 (KHTML, like Gecko) Chrome/92.0.4515.159 Safari/537.36",1536,664,1536,864,,,,,,,,4,6.3512,0.427777797,-0.420370384,1,0,0,next_trial_button,0,43,43,30,1,landscape,visiblesun,noclouds,3,"346.3035019455253,500",
,,,,,,,gr,other,gr,f,30,,2021-08-31_19h34.30.086,online_experiment,2021.1.4,Win32,60.09615385,IwAR1g6JXnsm9GC64iW07idP7sHdg5giBRkKhRXazKp7gtRyQNf5ujD3vr4wM,FALSE,,"Mozilla/5.0 (Windows NT 10.0; Win64; x64) AppleWebKit/537.36 (KHTML, like Gecko) Chrome/92.0.4515.159 Safari/537.36",1536,664,1536,864,,,,,,,,5,5.1229,0.38611113,-0.441666737,1,0,0,next_trial_button,0,44,44,76,1,landscape,invisiblesun,noclouds,9,"1056.6037735849056,500",
,,,,,,,gr,other,gr,f,30,,2021-08-31_19h34.30.086,online_experiment,2021.1.4,Win32,60.09615385,IwAR1g6JXnsm9GC64iW07idP7sHdg5giBRkKhRXazKp7gtRyQNf5ujD3vr4wM,FALSE,,"Mozilla/5.0 (Windows NT 10.0; Win64; x64) AppleWebKit/537.36 (KHTML, like Gecko) Chrome/92.0.4515.159 Safari/537.36",1536,664,1536,864,,,,,,,,7,9.7222,0.391666686,-0.414814828,1,0,0,next_trial_button,0,45,45,62,1,landscape,visiblesun,noclouds,7,"417.42389822807814,500",
,,,,,,,gr,other,gr,f,30,,2021-08-31_19h34.30.086,online_experiment,2021.1.4,Win32,60.09615385,IwAR1g6JXnsm9GC64iW07idP7sHdg5giBRkKhRXazKp7gtRyQNf5ujD3vr4wM,FALSE,,"Mozilla/5.0 (Windows NT 10.0; Win64; x64) AppleWebKit/537.36 (KHTML, like Gecko) Chrome/92.0.4515.159 Safari/537.36",1536,664,1536,864,,,,,,,,8,4.7722,0.346296428,-0.418518589,1,0,0,next_trial_button,0,46,46,37,1,landscape,invisiblesun,yesclouds,4,"669.4214876033058,500",
,,,,,,,gr,other,gr,f,30,,2021-08-31_19h34.30.086,online_experiment,2021.1.4,Win32,60.09615385,IwAR1g6JXnsm9GC64iW07idP7sHdg5giBRkKhRXazKp7gtRyQNf5ujD3vr4wM,FALSE,,"Mozilla/5.0 (Windows NT 10.0; Win64; x64) AppleWebKit/537.36 (KHTML, like Gecko) Chrome/92.0.4515.159 Safari/537.36",1536,664,1536,864,,,,,,,,6,4.092,0.307407425,-0.394444458,1,0,0,next_trial_button,0,47,47,60,1,landscape,invisiblesun,noclouds,7,"666.7268134247564,500",
,,,,,,,gr,other,gr,f,30,,2021-08-31_19h34.30.086,online_experiment,2021.1.4,Win32,60.09615385,IwAR1g6JXnsm9GC64iW07idP7sHdg5giBRkKhRXazKp7gtRyQNf5ujD3vr4wM,FALSE,,"Mozilla/5.0 (Windows NT 10.0; Win64; x64) AppleWebKit/537.36 (KHTML, like Gecko) Chrome/92.0.4515.159 Safari/537.36",1536,664,1536,864,,,,,,,,6,8.7198,0.372222241,-0.424074088,1,0,0,next_trial_button,0,48,48,20,1,landscape,invisiblesun,noclouds,2,"755.192878338279,500",
,,,,,,,gr,other,gr,f,30,,2021-08-31_19h34.30.086,online_experiment,2021.1.4,Win32,60.09615385,IwAR1g6JXnsm9GC64iW07idP7sHdg5giBRkKhRXazKp7gtRyQNf5ujD3vr4wM,FALSE,,"Mozilla/5.0 (Windows NT 10.0; Win64; x64) AppleWebKit/537.36 (KHTML, like Gecko) Chrome/92.0.4515.159 Safari/537.36",1536,664,1536,864,,,,,,,,6,19.3388,0.369444576,-0.412037051,1,0,0,next_trial_button,0,49,49,44,1,landscape,invisiblesun,noclouds,5,"666.6666666666666,500",
,,,,,,,gr,other,gr,f,30,,2021-08-31_19h34.30.086,online_experiment,2021.1.4,Win32,60.09615385,IwAR1g6JXnsm9GC64iW07idP7sHdg5giBRkKhRXazKp7gtRyQNf5ujD3vr4wM,FALSE,,"Mozilla/5.0 (Windows NT 10.0; Win64; x64) AppleWebKit/537.36 (KHTML, like Gecko) Chrome/92.0.4515.159 Safari/537.36",1536,664,1536,864,,,,,,,,5,7.0297,0.358333352,-0.426851866,1,0,0,next_trial_button,0,50,50,39,1,landscape,visiblesun,yesclouds,4,"749.7656982193065,500",
,,,,,,,gr,other,gr,f,30,,2021-08-31_19h34.30.086,online_experiment,2021.1.4,Win32,60.09615385,IwAR1g6JXnsm9GC64iW07idP7sHdg5giBRkKhRXazKp7gtRyQNf5ujD3vr4wM,FALSE,,"Mozilla/5.0 (Windows NT 10.0; Win64; x64) AppleWebKit/537.36 (KHTML, like Gecko) Chrome/92.0.4515.159 Safari/537.36",1536,664,1536,864,,,,,,,,7,3.8788,0.357407426,-0.397222236,1,0,0,next_trial_button,0,51,51,41,1,beach,invisiblesun,yesclouds,5,"1248.4394506866417,500",
,,,,,,,gr,other,gr,f,30,,2021-08-31_19h34.30.086,online_experiment,2021.1.4,Win32,60.09615385,IwAR1g6JXnsm9GC64iW07idP7sHdg5giBRkKhRXazKp7gtRyQNf5ujD3vr4wM,FALSE,,"Mozilla/5.0 (Windows NT 10.0; Win64; x64) AppleWebKit/537.36 (KHTML, like Gecko) Chrome/92.0.4515.159 Safari/537.36",1536,664,1536,864,,,,,,,,5,4.7419,0.391666686,-0.41666668,1,0,0,next_trial_button,0,52,52,6,1,landscape,visiblesun,noclouds,0,"1413.8005159071367,500",
,,,,,,,gr,other,gr,f,30,,2021-08-31_19h34.30.086,online_experiment,2021.1.4,Win32,60.09615385,IwAR1g6JXnsm9GC64iW07idP7sHdg5giBRkKhRXazKp7gtRyQNf5ujD3vr4wM,FALSE,,"Mozilla/5.0 (Windows NT 10.0; Win64; x64) AppleWebKit/537.36 (KHTML, like Gecko) Chrome/92.0.4515.159 Safari/537.36",1536,664,1536,864,,,,,,,,7,27.065,0.383333465,-0.442592607,1,0,0,next_trial_button,0,53,53,22,1,landscape,visiblesun,noclouds,2,"749.3333333333333,500",
,,,,,,,gr,other,gr,f,30,,2021-08-31_19h34.30.086,online_experiment,2021.1.4,Win32,60.09615385,IwAR1g6JXnsm9GC64iW07idP7sHdg5giBRkKhRXazKp7gtRyQNf5ujD3vr4wM,FALSE,,"Mozilla/5.0 (Windows NT 10.0; Win64; x64) AppleWebKit/537.36 (KHTML, like Gecko) Chrome/92.0.4515.159 Safari/537.36",1536,664,1536,864,,,,,,,,6,8.26,0.407407427,-0.392592606,1,0,0,next_trial_button,0,54,54,69,1,landscape,invisiblesun,yesclouds,8,"750,500",
,,,,,,,gr,other,gr,f,30,,2021-08-31_19h34.30.086,online_experiment,2021.1.4,Win32,60.09615385,IwAR1g6JXnsm9GC64iW07idP7sHdg5giBRkKhRXazKp7gtRyQNf5ujD3vr4wM,FALSE,,"Mozilla/5.0 (Windows NT 10.0; Win64; x64) AppleWebKit/537.36 (KHTML, like Gecko) Chrome/92.0.4515.159 Safari/537.36",1536,664,1536,864,,,,,,,,9,5.8024,0.400925945,-0.431481495,1,0,0,next_trial_button,0,55,55,1,1,beach,invisiblesun,yesclouds,0,"666.6666666666666,500",
,,,,,,,gr,other,gr,f,30,,2021-08-31_19h34.30.086,online_experiment,2021.1.4,Win32,60.09615385,IwAR1g6JXnsm9GC64iW07idP7sHdg5giBRkKhRXazKp7gtRyQNf5ujD3vr4wM,FALSE,,"Mozilla/5.0 (Windows NT 10.0; Win64; x64) AppleWebKit/537.36 (KHTML, like Gecko) Chrome/92.0.4515.159 Safari/537.36",1536,664,1536,864,,,,,,,,6,10.6238,0.348148167,-0.420370384,1,0,0,next_trial_button,0,56,56,77,1,landscape,invisiblesun,yesclouds,9,"888.8888888888888,500",
,,,,,,,gr,other,gr,f,30,,2021-08-31_19h34.30.086,online_experiment,2021.1.4,Win32,60.09615385,IwAR1g6JXnsm9GC64iW07idP7sHdg5giBRkKhRXazKp7gtRyQNf5ujD3vr4wM,FALSE,,"Mozilla/5.0 (Windows NT 10.0; Win64; x64) AppleWebKit/537.36 (KHTML, like Gecko) Chrome/92.0.4515.159 Safari/537.36",1536,664,1536,864,,,,,,,,5,5.2583,0.439814835,-0.399074087,1,0,0,next_trial_button,0,57,57,71,1,landscape,visiblesun,yesclouds,8,"666.6666666666666,500",
,,,,,,,gr,other,gr,f,30,,2021-08-31_19h34.30.086,online_experiment,2021.1.4,Win32,60.09615385,IwAR1g6JXnsm9GC64iW07idP7sHdg5giBRkKhRXazKp7gtRyQNf5ujD3vr4wM,FALSE,,"Mozilla/5.0 (Windows NT 10.0; Win64; x64) AppleWebKit/537.36 (KHTML, like Gecko) Chrome/92.0.4515.159 Safari/537.36",1536,664,1536,864,,,,,,,,5,11.0435,0.429629762,-0.407407421,1,0,0,next_trial_button,0,58,58,31,1,landscape,visiblesun,yesclouds,3,"638.0622837370242,500",
,,,,,,,gr,other,gr,f,30,,2021-08-31_19h34.30.086,online_experiment,2021.1.4,Win32,60.09615385,IwAR1g6JXnsm9GC64iW07idP7sHdg5giBRkKhRXazKp7gtRyQNf5ujD3vr4wM,FALSE,,"Mozilla/5.0 (Windows NT 10.0; Win64; x64) AppleWebKit/537.36 (KHTML, like Gecko) Chrome/92.0.4515.159 Safari/537.36",1536,664,1536,864,,,,,,,,7,4.2738,0.350926057,-0.42592594,1,0,0,next_trial_button,0,59,59,58,1,beach,visiblesun,noclouds,7,"1028.5714285714284,500",
,,,,,,,gr,other,gr,f,30,,2021-08-31_19h34.30.086,online_experiment,2021.1.4,Win32,60.09615385,IwAR1g6JXnsm9GC64iW07idP7sHdg5giBRkKhRXazKp7gtRyQNf5ujD3vr4wM,FALSE,,"Mozilla/5.0 (Windows NT 10.0; Win64; x64) AppleWebKit/537.36 (KHTML, like Gecko) Chrome/92.0.4515.159 Safari/537.36",1536,664,1536,864,,,,,,,,6,3.908,0.368518537,-0.445370384,1,0,0,next_trial_button,0,60,60,21,1,landscape,invisiblesun,yesclouds,2,"750,500",
,,,,,,,gr,other,gr,f,30,,2021-08-31_19h34.30.086,online_experiment,2021.1.4,Win32,60.09615385,IwAR1g6JXnsm9GC64iW07idP7sHdg5giBRkKhRXazKp7gtRyQNf5ujD3vr4wM,FALSE,,"Mozilla/5.0 (Windows NT 10.0; Win64; x64) AppleWebKit/537.36 (KHTML, like Gecko) Chrome/92.0.4515.159 Safari/537.36",1536,664,1536,864,,,,,,,,5,3.9385,0.428703723,-0.412962977,1,0,0,next_trial_button,0,61,61,52,1,landscape,invisiblesun,noclouds,6,"666.6666666666666,500",
,,,,,,,gr,other,gr,f,30,,2021-08-31_19h34.30.086,online_experiment,2021.1.4,Win32,60.09615385,IwAR1g6JXnsm9GC64iW07idP7sHdg5giBRkKhRXazKp7gtRyQNf5ujD3vr4wM,FALSE,,"Mozilla/5.0 (Windows NT 10.0; Win64; x64) AppleWebKit/537.36 (KHTML, like Gecko) Chrome/92.0.4515.159 Safari/537.36",1536,664,1536,864,,,,,,,,7,8.737,0.515740762,-0.429629643,1,0,0,next_trial_button,0,62,62,3,1,beach,visiblesun,yesclouds,0,"1152.5122276567363,500",
,,,,,,,gr,other,gr,f,30,,2021-08-31_19h34.30.086,online_experiment,2021.1.4,Win32,60.09615385,IwAR1g6JXnsm9GC64iW07idP7sHdg5giBRkKhRXazKp7gtRyQNf5ujD3vr4wM,FALSE,,"Mozilla/5.0 (Windows NT 10.0; Win64; x64) AppleWebKit/537.36 (KHTML, like Gecko) Chrome/92.0.4515.159 Safari/537.36",1536,664,1536,864,,,,,,,,8,3.0488,0.353703722,-0.411111125,1,0,0,next_trial_button,0,63,63,27,1,beach,visiblesun,yesclouds,3,"752.8089887640449,500",
,,,,,,,gr,other,gr,f,30,,2021-08-31_19h34.30.086,online_experiment,2021.1.4,Win32,60.09615385,IwAR1g6JXnsm9GC64iW07idP7sHdg5giBRkKhRXazKp7gtRyQNf5ujD3vr4wM,FALSE,,"Mozilla/5.0 (Windows NT 10.0; Win64; x64) AppleWebKit/537.36 (KHTML, like Gecko) Chrome/92.0.4515.159 Safari/537.36",1536,664,1536,864,,,,,,,,4,2.4489,0.405555575,-0.406481495,1,0,0,next_trial_button,0,64,64,68,1,landscape,invisiblesun,noclouds,8,"666.6666666666666,500",
,,,,,,,gr,other,gr,f,30,,2021-08-31_19h34.30.086,online_experiment,2021.1.4,Win32,60.09615385,IwAR1g6JXnsm9GC64iW07idP7sHdg5giBRkKhRXazKp7gtRyQNf5ujD3vr4wM,FALSE,,"Mozilla/5.0 (Windows NT 10.0; Win64; x64) AppleWebKit/537.36 (KHTML, like Gecko) Chrome/92.0.4515.159 Safari/537.36",1536,664,1536,864,,,,,,,,6,8.5404,0.448148281,-0.40000007,1,0,0,next_trial_button,0,65,65,72,1,beach,invisiblesun,noclouds,9,"888.8888888888888,500",
,,,,,,,gr,other,gr,f,30,,2021-08-31_19h34.30.086,online_experiment,2021.1.4,Win32,60.09615385,IwAR1g6JXnsm9GC64iW07idP7sHdg5giBRkKhRXazKp7gtRyQNf5ujD3vr4wM,FALSE,,"Mozilla/5.0 (Windows NT 10.0; Win64; x64) AppleWebKit/537.36 (KHTML, like Gecko) Chrome/92.0.4515.159 Safari/537.36",1536,664,1536,864,,,,,,,,6,4.7399,0.339814833,-0.424074088,1,0,0,next_trial_button,0,66,66,74,1,beach,visiblesun,noclouds,9,"1028.5714285714284,500",
,,,,,,,gr,other,gr,f,30,,2021-08-31_19h34.30.086,online_experiment,2021.1.4,Win32,60.09615385,IwAR1g6JXnsm9GC64iW07idP7sHdg5giBRkKhRXazKp7gtRyQNf5ujD3vr4wM,FALSE,,"Mozilla/5.0 (Windows NT 10.0; Win64; x64) AppleWebKit/537.36 (KHTML, like Gecko) Chrome/92.0.4515.159 Safari/537.36",1536,664,1536,864,,,,,,,,7,3.3539,0.3564815,-0.418518589,1,0,0,next_trial_button,0,67,67,46,1,landscape,visiblesun,noclouds,5,"750,500",
,,,,,,,gr,other,gr,f,30,,2021-08-31_19h34.30.086,online_experiment,2021.1.4,Win32,60.09615385,IwAR1g6JXnsm9GC64iW07idP7sHdg5giBRkKhRXazKp7gtRyQNf5ujD3vr4wM,FALSE,,"Mozilla/5.0 (Windows NT 10.0; Win64; x64) AppleWebKit/537.36 (KHTML, like Gecko) Chrome/92.0.4515.159 Safari/537.36",1536,664,1536,864,,,,,,,,6,2.5032,0.315740759,-0.393518532,1,0,0,next_trial_button,0,68,68,56,1,beach,invisiblesun,noclouds,7,"1028.5714285714284,500",
,,,,,,,gr,other,gr,f,30,,2021-08-31_19h34.30.086,online_experiment,2021.1.4,Win32,60.09615385,IwAR1g6JXnsm9GC64iW07idP7sHdg5giBRkKhRXazKp7gtRyQNf5ujD3vr4wM,FALSE,,"Mozilla/5.0 (Windows NT 10.0; Win64; x64) AppleWebKit/537.36 (KHTML, like Gecko) Chrome/92.0.4515.159 Safari/537.36",1536,664,1536,864,,,,,,,,6,4.0389,0.349074093,-0.399074087,1,0,0,next_trial_button,0,69,69,51,1,beach,visiblesun,yesclouds,6,"657.1279916753382,500",
,,,,,,,gr,other,gr,f,30,,2021-08-31_19h34.30.086,online_experiment,2021.1.4,Win32,60.09615385,IwAR1g6JXnsm9GC64iW07idP7sHdg5giBRkKhRXazKp7gtRyQNf5ujD3vr4wM,FALSE,,"Mozilla/5.0 (Windows NT 10.0; Win64; x64) AppleWebKit/537.36 (KHTML, like Gecko) Chrome/92.0.4515.159 Safari/537.36",1536,664,1536,864,,,,,,,,6,2.9058,0.325000018,-0.402777791,1,0,0,next_trial_button,0,70,70,13,1,landscape,invisiblesun,yesclouds,1,"783.1192660550458,500",
,,,,,,,gr,other,gr,f,30,,2021-08-31_19h34.30.086,online_experiment,2021.1.4,Win32,60.09615385,IwAR1g6JXnsm9GC64iW07idP7sHdg5giBRkKhRXazKp7gtRyQNf5ujD3vr4wM,FALSE,,"Mozilla/5.0 (Windows NT 10.0; Win64; x64) AppleWebKit/537.36 (KHTML, like Gecko) Chrome/92.0.4515.159 Safari/537.36",1536,664,1536,864,,,,,,,,7,4.0273,0.329629648,-0.413888959,1,0,0,next_trial_button,0,71,71,12,1,landscape,invisiblesun,noclouds,1,"666.6666666666666,500",
,,,,,,,gr,other,gr,f,30,,2021-08-31_19h34.30.086,online_experiment,2021.1.4,Win32,60.09615385,IwAR1g6JXnsm9GC64iW07idP7sHdg5giBRkKhRXazKp7gtRyQNf5ujD3vr4wM,FALSE,,"Mozilla/5.0 (Windows NT 10.0; Win64; x64) AppleWebKit/537.36 (KHTML, like Gecko) Chrome/92.0.4515.159 Safari/537.36",1536,664,1536,864,,,,,,,,6,4.8808,0.328703722,-0.412037051,1,0,0,next_trial_button,0,72,72,47,1,landscape,visiblesun,yesclouds,5,"666.6666666666666,500",
,,,,,,,gr,other,gr,f,30,,2021-08-31_19h34.30.086,online_experiment,2021.1.4,Win32,60.09615385,IwAR1g6JXnsm9GC64iW07idP7sHdg5giBRkKhRXazKp7gtRyQNf5ujD3vr4wM,FALSE,,"Mozilla/5.0 (Windows NT 10.0; Win64; x64) AppleWebKit/537.36 (KHTML, like Gecko) Chrome/92.0.4515.159 Safari/537.36",1536,664,1536,864,,,,,,,,7,3.6482,0.324074092,-0.42129631,1,0,0,next_trial_button,0,73,73,43,1,beach,visiblesun,yesclouds,5,"750,500",
,,,,,,,gr,other,gr,f,30,,2021-08-31_19h34.30.086,online_experiment,2021.1.4,Win32,60.09615385,IwAR1g6JXnsm9GC64iW07idP7sHdg5giBRkKhRXazKp7gtRyQNf5ujD3vr4wM,FALSE,,"Mozilla/5.0 (Windows NT 10.0; Win64; x64) AppleWebKit/537.36 (KHTML, like Gecko) Chrome/92.0.4515.159 Safari/537.36",1536,664,1536,864,,,,,,,,7,6.294,0.387037056,-0.414814828,1,0,0,next_trial_button,0,74,74,57,1,beach,invisiblesun,yesclouds,7,"749.707488299532,500",
,,,,,,,gr,other,gr,f,30,,2021-08-31_19h34.30.086,online_experiment,2021.1.4,Win32,60.09615385,IwAR1g6JXnsm9GC64iW07idP7sHdg5giBRkKhRXazKp7gtRyQNf5ujD3vr4wM,FALSE,,"Mozilla/5.0 (Windows NT 10.0; Win64; x64) AppleWebKit/537.36 (KHTML, like Gecko) Chrome/92.0.4515.159 Safari/537.36",1536,664,1536,864,,,,,,,,5,2.5856,0.376851871,-0.39629631,1,0,0,next_trial_button,0,75,75,5,1,landscape,invisiblesun,yesclouds,0,"750.4690431519699,500",
,,,,,,,gr,other,gr,f,30,,2021-08-31_19h34.30.086,online_experiment,2021.1.4,Win32,60.09615385,IwAR1g6JXnsm9GC64iW07idP7sHdg5giBRkKhRXazKp7gtRyQNf5ujD3vr4wM,FALSE,,"Mozilla/5.0 (Windows NT 10.0; Win64; x64) AppleWebKit/537.36 (KHTML, like Gecko) Chrome/92.0.4515.159 Safari/537.36",1536,664,1536,864,,,,,,,,7,12.3762,0.388888908,-0.386111181,1,0,0,next_trial_button,0,76,76,24,1,beach,invisiblesun,noclouds,3,"750.089190153407,500",
,,,,,,,gr,other,gr,f,30,,2021-08-31_19h34.30.086,online_experiment,2021.1.4,Win32,60.09615385,IwAR1g6JXnsm9GC64iW07idP7sHdg5giBRkKhRXazKp7gtRyQNf5ujD3vr4wM,FALSE,,"Mozilla/5.0 (Windows NT 10.0; Win64; x64) AppleWebKit/537.36 (KHTML, like Gecko) Chrome/92.0.4515.159 Safari/537.36",1536,664,1536,864,,,,,,,,7,1.8778,0.352777796,-0.398148162,1,0,0,next_trial_button,0,77,77,11,1,beach,visiblesun,yesclouds,1,"989.8132427843803,500",
,,,,,,,gr,other,gr,f,30,,2021-08-31_19h34.30.086,online_experiment,2021.1.4,Win32,60.09615385,IwAR1g6JXnsm9GC64iW07idP7sHdg5giBRkKhRXazKp7gtRyQNf5ujD3vr4wM,FALSE,,"Mozilla/5.0 (Windows NT 10.0; Win64; x64) AppleWebKit/537.36 (KHTML, like Gecko) Chrome/92.0.4515.159 Safari/537.36",1536,664,1536,864,,,,,,,,6,10.7769,0.36111113,-0.402777791,1,0,0,next_trial_button,0,78,78,54,1,landscape,visiblesun,noclouds,6,"695.0043821209465,500",
,,,,,,,gr,other,gr,f,30,,2021-08-31_19h34.30.086,online_experiment,2021.1.4,Win32,60.09615385,IwAR1g6JXnsm9GC64iW07idP7sHdg5giBRkKhRXazKp7gtRyQNf5ujD3vr4wM,FALSE,,"Mozilla/5.0 (Windows NT 10.0; Win64; x64) AppleWebKit/537.36 (KHTML, like Gecko) Chrome/92.0.4515.159 Safari/537.36",1536,664,1536,864,,,,,,,,10,3.4738,0.408333353,-0.422222236,1,0,0,next_trial_button,0,79,79,45,1,landscape,invisiblesun,yesclouds,5,"749.6251874062968,500",
,,,,,,,gr,other,gr,f,30,,2021-08-31_19h34.30.086,online_experiment,2021.1.4,Win32,60.09615385,IwAR1g6JXnsm9GC64iW07idP7sHdg5giBRkKhRXazKp7gtRyQNf5ujD3vr4wM,FALSE,,"Mozilla/5.0 (Windows NT 10.0; Win64; x64) AppleWebKit/537.36 (KHTML, like Gecko) Chrome/92.0.4515.159 Safari/537.36",1536,664,1536,864,,,,,,,,,,,,,,,,,,,,,,,,,"749.6251874062968,500",697.9336
