language_mouse.x,language_mouse.y,language_mouse.leftButton,language_mouse.midButton,language_mouse.rightButton,language_mouse.time,language_mouse.clicked_name,nationality,mother_tongue,homeland,gender,age,email,date,expName,psychopyVersion,OS,frameRate,fbclid,cancel_experiment,cancel_reasons,client_agent_information,windowWidth,windowHeight,xRes,yRes,start_exp_mouse.x,start_exp_mouse.y,start_exp_mouse.leftButton,start_exp_mouse.midButton,start_exp_mouse.rightButton,start_exp_mouse.time,start_exp_mouse.clicked_name,rating_slider.response,rating_slider.rt,next_trial_mouse.x,next_trial_mouse.y,next_trial_mouse.leftButton,next_trial_mouse.midButton,next_trial_mouse.rightButton,next_trial_mouse.clicked_name,trials.thisRepN,trials.thisTrialN,trials.thisN,trials.thisIndex,trials.ran,environment,sunVisibility,cloudVisibility,imageId,imgSize,globalClockTime
0.329427083,-0.2109375,1,0,0,1.0664,gr_flag,gr,gr,gr,f,23,,2021-09-01_16h46.07.407,online_experiment,2021.1.4,Win32,59.91252771,IwAR2Y5IUeharV7jxvhMuM-3kfpRnflW189YLBK2DHbBGd5nZrVPniJRWksv0,FALSE,,"Mozilla/5.0 (Windows NT 10.0; Win64; x64) AppleWebKit/537.36 (KHTML, like Gecko) Chrome/92.0.4515.159 Safari/537.36",1366,657,1366,768,,,,,,,,,,,,,,,,,,,,,,,,,,
,,,,,,,gr,gr,gr,f,23,,2021-09-01_16h46.07.407,online_experiment,2021.1.4,Win32,59.91252771,IwAR2Y5IUeharV7jxvhMuM-3kfpRnflW189YLBK2DHbBGd5nZrVPniJRWksv0,FALSE,,"Mozilla/5.0 (Windows NT 10.0; Win64; x64) AppleWebKit/537.36 (KHTML, like Gecko) Chrome/92.0.4515.159 Safari/537.36",1366,657,1366,768,-0.005208333,-0.411458333,1,0,0,9.3367,cont_gr,7,12.7273,0.37109375,-0.4296875,1,0,0,next_trial_button,0,0,0,47,1,landscape,visiblesun,yesclouds,5,"666.6666666666666,500",
,,,,,,,gr,gr,gr,f,23,,2021-09-01_16h46.07.407,online_experiment,2021.1.4,Win32,59.91252771,IwAR2Y5IUeharV7jxvhMuM-3kfpRnflW189YLBK2DHbBGd5nZrVPniJRWksv0,FALSE,,"Mozilla/5.0 (Windows NT 10.0; Win64; x64) AppleWebKit/537.36 (KHTML, like Gecko) Chrome/92.0.4515.159 Safari/537.36",1366,657,1366,768,,,,,,,,6,15.6394,0.3671875,-0.415364583,1,0,0,next_trial_button,0,1,1,23,1,landscape,visiblesun,yesclouds,2,"767.97829036635,500",
,,,,,,,gr,gr,gr,f,23,,2021-09-01_16h46.07.407,online_experiment,2021.1.4,Win32,59.91252771,IwAR2Y5IUeharV7jxvhMuM-3kfpRnflW189YLBK2DHbBGd5nZrVPniJRWksv0,FALSE,,"Mozilla/5.0 (Windows NT 10.0; Win64; x64) AppleWebKit/537.36 (KHTML, like Gecko) Chrome/92.0.4515.159 Safari/537.36",1366,657,1366,768,,,,,,,,6,16.1204,0.380208333,-0.427083333,1,0,0,next_trial_button,0,2,2,79,1,landscape,visiblesun,yesclouds,9,"1028.5714285714284,500",
,,,,,,,gr,gr,gr,f,23,,2021-09-01_16h46.07.407,online_experiment,2021.1.4,Win32,59.91252771,IwAR2Y5IUeharV7jxvhMuM-3kfpRnflW189YLBK2DHbBGd5nZrVPniJRWksv0,FALSE,,"Mozilla/5.0 (Windows NT 10.0; Win64; x64) AppleWebKit/537.36 (KHTML, like Gecko) Chrome/92.0.4515.159 Safari/537.36",1366,657,1366,768,,,,,,,,3,6.1126,0.423177083,-0.419270833,1,0,0,next_trial_button,0,3,3,60,1,landscape,invisiblesun,noclouds,7,"666.7268134247564,500",
,,,,,,,gr,gr,gr,f,23,,2021-09-01_16h46.07.407,online_experiment,2021.1.4,Win32,59.91252771,IwAR2Y5IUeharV7jxvhMuM-3kfpRnflW189YLBK2DHbBGd5nZrVPniJRWksv0,FALSE,,"Mozilla/5.0 (Windows NT 10.0; Win64; x64) AppleWebKit/537.36 (KHTML, like Gecko) Chrome/92.0.4515.159 Safari/537.36",1366,657,1366,768,,,,,,,,9,7.1996,0.416666667,-0.41796875,1,0,0,next_trial_button,0,4,4,50,1,beach,visiblesun,noclouds,6,"666.6666666666666,500",
,,,,,,,gr,gr,gr,f,23,,2021-09-01_16h46.07.407,online_experiment,2021.1.4,Win32,59.91252771,IwAR2Y5IUeharV7jxvhMuM-3kfpRnflW189YLBK2DHbBGd5nZrVPniJRWksv0,FALSE,,"Mozilla/5.0 (Windows NT 10.0; Win64; x64) AppleWebKit/537.36 (KHTML, like Gecko) Chrome/92.0.4515.159 Safari/537.36",1366,657,1366,768,,,,,,,,8,6.6493,0.453125,-0.42578125,1,0,0,next_trial_button,0,5,5,25,1,beach,invisiblesun,yesclouds,3,"750.4690431519699,500",
,,,,,,,gr,gr,gr,f,23,,2021-09-01_16h46.07.407,online_experiment,2021.1.4,Win32,59.91252771,IwAR2Y5IUeharV7jxvhMuM-3kfpRnflW189YLBK2DHbBGd5nZrVPniJRWksv0,FALSE,,"Mozilla/5.0 (Windows NT 10.0; Win64; x64) AppleWebKit/537.36 (KHTML, like Gecko) Chrome/92.0.4515.159 Safari/537.36",1366,657,1366,768,,,,,,,,9,9.6465,0.389322917,-0.434895833,1,0,0,next_trial_button,0,6,6,63,1,landscape,visiblesun,yesclouds,7,"331.94444444444446,500",
,,,,,,,gr,gr,gr,f,23,,2021-09-01_16h46.07.407,online_experiment,2021.1.4,Win32,59.91252771,IwAR2Y5IUeharV7jxvhMuM-3kfpRnflW189YLBK2DHbBGd5nZrVPniJRWksv0,FALSE,,"Mozilla/5.0 (Windows NT 10.0; Win64; x64) AppleWebKit/537.36 (KHTML, like Gecko) Chrome/92.0.4515.159 Safari/537.36",1366,657,1366,768,,,,,,,,7,12.0434,0.390625,-0.421875,1,0,0,next_trial_button,0,7,7,31,1,landscape,visiblesun,yesclouds,3,"638.0622837370242,500",
,,,,,,,gr,gr,gr,f,23,,2021-09-01_16h46.07.407,online_experiment,2021.1.4,Win32,59.91252771,IwAR2Y5IUeharV7jxvhMuM-3kfpRnflW189YLBK2DHbBGd5nZrVPniJRWksv0,FALSE,,"Mozilla/5.0 (Windows NT 10.0; Win64; x64) AppleWebKit/537.36 (KHTML, like Gecko) Chrome/92.0.4515.159 Safari/537.36",1366,657,1366,768,,,,,,,,9,7.5852,0.395833333,-0.416666667,1,0,0,next_trial_button,0,8,8,40,1,beach,invisiblesun,noclouds,5,"1028.5714285714284,500",
,,,,,,,gr,gr,gr,f,23,,2021-09-01_16h46.07.407,online_experiment,2021.1.4,Win32,59.91252771,IwAR2Y5IUeharV7jxvhMuM-3kfpRnflW189YLBK2DHbBGd5nZrVPniJRWksv0,FALSE,,"Mozilla/5.0 (Windows NT 10.0; Win64; x64) AppleWebKit/537.36 (KHTML, like Gecko) Chrome/92.0.4515.159 Safari/537.36",1366,657,1366,768,,,,,,,,9,4.1009,0.4140625,-0.421875,1,0,0,next_trial_button,0,9,9,29,1,landscape,invisiblesun,yesclouds,3,"749.8660953401178,500",
,,,,,,,gr,gr,gr,f,23,,2021-09-01_16h46.07.407,online_experiment,2021.1.4,Win32,59.91252771,IwAR2Y5IUeharV7jxvhMuM-3kfpRnflW189YLBK2DHbBGd5nZrVPniJRWksv0,FALSE,,"Mozilla/5.0 (Windows NT 10.0; Win64; x64) AppleWebKit/537.36 (KHTML, like Gecko) Chrome/92.0.4515.159 Safari/537.36",1366,657,1366,768,,,,,,,,8,7.111,0.42578125,-0.4140625,1,0,0,next_trial_button,0,10,10,73,1,beach,invisiblesun,yesclouds,9,"1028.5714285714284,500",
,,,,,,,gr,gr,gr,f,23,,2021-09-01_16h46.07.407,online_experiment,2021.1.4,Win32,59.91252771,IwAR2Y5IUeharV7jxvhMuM-3kfpRnflW189YLBK2DHbBGd5nZrVPniJRWksv0,FALSE,,"Mozilla/5.0 (Windows NT 10.0; Win64; x64) AppleWebKit/537.36 (KHTML, like Gecko) Chrome/92.0.4515.159 Safari/537.36",1366,657,1366,768,,,,,,,,5,9.8083,0.4140625,-0.42578125,1,0,0,next_trial_button,0,11,11,55,1,landscape,visiblesun,yesclouds,6,"749.8819083608881,500",
,,,,,,,gr,gr,gr,f,23,,2021-09-01_16h46.07.407,online_experiment,2021.1.4,Win32,59.91252771,IwAR2Y5IUeharV7jxvhMuM-3kfpRnflW189YLBK2DHbBGd5nZrVPniJRWksv0,FALSE,,"Mozilla/5.0 (Windows NT 10.0; Win64; x64) AppleWebKit/537.36 (KHTML, like Gecko) Chrome/92.0.4515.159 Safari/537.36",1366,657,1366,768,,,,,,,,6,5.3357,0.423177083,-0.40625,1,0,0,next_trial_button,0,12,12,7,1,landscape,visiblesun,yesclouds,0,"743.421052631579,500",
,,,,,,,gr,gr,gr,f,23,,2021-09-01_16h46.07.407,online_experiment,2021.1.4,Win32,59.91252771,IwAR2Y5IUeharV7jxvhMuM-3kfpRnflW189YLBK2DHbBGd5nZrVPniJRWksv0,FALSE,,"Mozilla/5.0 (Windows NT 10.0; Win64; x64) AppleWebKit/537.36 (KHTML, like Gecko) Chrome/92.0.4515.159 Safari/537.36",1366,657,1366,768,,,,,,,,2,6.759,0.440104167,-0.416666667,1,0,0,next_trial_button,0,13,13,28,1,landscape,invisiblesun,noclouds,3,"888.8888888888888,500",
,,,,,,,gr,gr,gr,f,23,,2021-09-01_16h46.07.407,online_experiment,2021.1.4,Win32,59.91252771,IwAR2Y5IUeharV7jxvhMuM-3kfpRnflW189YLBK2DHbBGd5nZrVPniJRWksv0,FALSE,,"Mozilla/5.0 (Windows NT 10.0; Win64; x64) AppleWebKit/537.36 (KHTML, like Gecko) Chrome/92.0.4515.159 Safari/537.36",1366,657,1366,768,,,,,,,,9,6.5734,0.438802083,-0.3984375,1,0,0,next_trial_button,0,14,14,74,1,beach,visiblesun,noclouds,9,"1028.5714285714284,500",
,,,,,,,gr,gr,gr,f,23,,2021-09-01_16h46.07.407,online_experiment,2021.1.4,Win32,59.91252771,IwAR2Y5IUeharV7jxvhMuM-3kfpRnflW189YLBK2DHbBGd5nZrVPniJRWksv0,FALSE,,"Mozilla/5.0 (Windows NT 10.0; Win64; x64) AppleWebKit/537.36 (KHTML, like Gecko) Chrome/92.0.4515.159 Safari/537.36",1366,657,1366,768,,,,,,,,9,6.3866,0.4140625,-0.412760417,1,0,0,next_trial_button,0,15,15,11,1,beach,visiblesun,yesclouds,1,"989.8132427843803,500",
,,,,,,,gr,gr,gr,f,23,,2021-09-01_16h46.07.407,online_experiment,2021.1.4,Win32,59.91252771,IwAR2Y5IUeharV7jxvhMuM-3kfpRnflW189YLBK2DHbBGd5nZrVPniJRWksv0,FALSE,,"Mozilla/5.0 (Windows NT 10.0; Win64; x64) AppleWebKit/537.36 (KHTML, like Gecko) Chrome/92.0.4515.159 Safari/537.36",1366,657,1366,768,,,,,,,,9,8.8574,0.423177083,-0.42578125,1,0,0,next_trial_button,0,16,16,17,1,beach,invisiblesun,yesclouds,2,"684.8635235732011,500",
,,,,,,,gr,gr,gr,f,23,,2021-09-01_16h46.07.407,online_experiment,2021.1.4,Win32,59.91252771,IwAR2Y5IUeharV7jxvhMuM-3kfpRnflW189YLBK2DHbBGd5nZrVPniJRWksv0,FALSE,,"Mozilla/5.0 (Windows NT 10.0; Win64; x64) AppleWebKit/537.36 (KHTML, like Gecko) Chrome/92.0.4515.159 Safari/537.36",1366,657,1366,768,,,,,,,,9,11.3397,0.401041667,-0.411458333,1,0,0,next_trial_button,0,17,17,6,1,landscape,visiblesun,noclouds,0,"1413.8005159071367,500",
,,,,,,,gr,gr,gr,f,23,,2021-09-01_16h46.07.407,online_experiment,2021.1.4,Win32,59.91252771,IwAR2Y5IUeharV7jxvhMuM-3kfpRnflW189YLBK2DHbBGd5nZrVPniJRWksv0,FALSE,,"Mozilla/5.0 (Windows NT 10.0; Win64; x64) AppleWebKit/537.36 (KHTML, like Gecko) Chrome/92.0.4515.159 Safari/537.36",1366,657,1366,768,,,,,,,,6,8.0144,0.3828125,-0.41015625,1,0,0,next_trial_button,0,18,18,5,1,landscape,invisiblesun,yesclouds,0,"750.4690431519699,500",
,,,,,,,gr,gr,gr,f,23,,2021-09-01_16h46.07.407,online_experiment,2021.1.4,Win32,59.91252771,IwAR2Y5IUeharV7jxvhMuM-3kfpRnflW189YLBK2DHbBGd5nZrVPniJRWksv0,FALSE,,"Mozilla/5.0 (Windows NT 10.0; Win64; x64) AppleWebKit/537.36 (KHTML, like Gecko) Chrome/92.0.4515.159 Safari/537.36",1366,657,1366,768,,,,,,,,7,9.1707,0.361979167,-0.3984375,1,0,0,next_trial_button,0,19,19,24,1,beach,invisiblesun,noclouds,3,"750.089190153407,500",
,,,,,,,gr,gr,gr,f,23,,2021-09-01_16h46.07.407,online_experiment,2021.1.4,Win32,59.91252771,IwAR2Y5IUeharV7jxvhMuM-3kfpRnflW189YLBK2DHbBGd5nZrVPniJRWksv0,FALSE,,"Mozilla/5.0 (Windows NT 10.0; Win64; x64) AppleWebKit/537.36 (KHTML, like Gecko) Chrome/92.0.4515.159 Safari/537.36",1366,657,1366,768,,,,,,,,8,6.6738,0.407552083,-0.403645833,1,0,0,next_trial_button,0,20,20,37,1,landscape,invisiblesun,yesclouds,4,"669.4214876033058,500",
,,,,,,,gr,gr,gr,f,23,,2021-09-01_16h46.07.407,online_experiment,2021.1.4,Win32,59.91252771,IwAR2Y5IUeharV7jxvhMuM-3kfpRnflW189YLBK2DHbBGd5nZrVPniJRWksv0,FALSE,,"Mozilla/5.0 (Windows NT 10.0; Win64; x64) AppleWebKit/537.36 (KHTML, like Gecko) Chrome/92.0.4515.159 Safari/537.36",1366,657,1366,768,,,,,,,,7,8.2705,0.38671875,-0.415364583,1,0,0,next_trial_button,0,21,21,75,1,beach,visiblesun,yesclouds,9,"1029.6010296010297,500",
,,,,,,,gr,gr,gr,f,23,,2021-09-01_16h46.07.407,online_experiment,2021.1.4,Win32,59.91252771,IwAR2Y5IUeharV7jxvhMuM-3kfpRnflW189YLBK2DHbBGd5nZrVPniJRWksv0,FALSE,,"Mozilla/5.0 (Windows NT 10.0; Win64; x64) AppleWebKit/537.36 (KHTML, like Gecko) Chrome/92.0.4515.159 Safari/537.36",1366,657,1366,768,,,,,,,,2,14.0348,0.4375,-0.423177083,1,0,0,next_trial_button,0,22,22,68,1,landscape,invisiblesun,noclouds,8,"666.6666666666666,500",
,,,,,,,gr,gr,gr,f,23,,2021-09-01_16h46.07.407,online_experiment,2021.1.4,Win32,59.91252771,IwAR2Y5IUeharV7jxvhMuM-3kfpRnflW189YLBK2DHbBGd5nZrVPniJRWksv0,FALSE,,"Mozilla/5.0 (Windows NT 10.0; Win64; x64) AppleWebKit/537.36 (KHTML, like Gecko) Chrome/92.0.4515.159 Safari/537.36",1366,657,1366,768,,,,,,,,7,16.9806,0.436197917,-0.434895833,1,0,0,next_trial_button,0,23,23,3,1,beach,visiblesun,yesclouds,0,"1152.5122276567363,500",
,,,,,,,gr,gr,gr,f,23,,2021-09-01_16h46.07.407,online_experiment,2021.1.4,Win32,59.91252771,IwAR2Y5IUeharV7jxvhMuM-3kfpRnflW189YLBK2DHbBGd5nZrVPniJRWksv0,FALSE,,"Mozilla/5.0 (Windows NT 10.0; Win64; x64) AppleWebKit/537.36 (KHTML, like Gecko) Chrome/92.0.4515.159 Safari/537.36",1366,657,1366,768,,,,,,,,8,7.1589,0.479166667,-0.40234375,1,0,0,next_trial_button,0,24,24,46,1,landscape,visiblesun,noclouds,5,"750,500",
,,,,,,,gr,gr,gr,f,23,,2021-09-01_16h46.07.407,online_experiment,2021.1.4,Win32,59.91252771,IwAR2Y5IUeharV7jxvhMuM-3kfpRnflW189YLBK2DHbBGd5nZrVPniJRWksv0,FALSE,,"Mozilla/5.0 (Windows NT 10.0; Win64; x64) AppleWebKit/537.36 (KHTML, like Gecko) Chrome/92.0.4515.159 Safari/537.36",1366,657,1366,768,,,,,,,,4,6.5365,0.41796875,-0.411458333,1,0,0,next_trial_button,0,25,25,48,1,beach,invisiblesun,noclouds,6,"1028.5714285714284,500",
,,,,,,,gr,gr,gr,f,23,,2021-09-01_16h46.07.407,online_experiment,2021.1.4,Win32,59.91252771,IwAR2Y5IUeharV7jxvhMuM-3kfpRnflW189YLBK2DHbBGd5nZrVPniJRWksv0,FALSE,,"Mozilla/5.0 (Windows NT 10.0; Win64; x64) AppleWebKit/537.36 (KHTML, like Gecko) Chrome/92.0.4515.159 Safari/537.36",1366,657,1366,768,,,,,,,,5,9.1027,0.42578125,-0.427083333,1,0,0,next_trial_button,0,26,26,12,1,landscape,invisiblesun,noclouds,1,"666.6666666666666,500",
,,,,,,,gr,gr,gr,f,23,,2021-09-01_16h46.07.407,online_experiment,2021.1.4,Win32,59.91252771,IwAR2Y5IUeharV7jxvhMuM-3kfpRnflW189YLBK2DHbBGd5nZrVPniJRWksv0,FALSE,,"Mozilla/5.0 (Windows NT 10.0; Win64; x64) AppleWebKit/537.36 (KHTML, like Gecko) Chrome/92.0.4515.159 Safari/537.36",1366,657,1366,768,,,,,,,,7,12.6855,0.411458333,-0.408854167,1,0,0,next_trial_button,0,27,27,26,1,beach,visiblesun,noclouds,3,"888.8888888888888,500",
,,,,,,,gr,gr,gr,f,23,,2021-09-01_16h46.07.407,online_experiment,2021.1.4,Win32,59.91252771,IwAR2Y5IUeharV7jxvhMuM-3kfpRnflW189YLBK2DHbBGd5nZrVPniJRWksv0,FALSE,,"Mozilla/5.0 (Windows NT 10.0; Win64; x64) AppleWebKit/537.36 (KHTML, like Gecko) Chrome/92.0.4515.159 Safari/537.36",1366,657,1366,768,,,,,,,,5,7.3762,0.481770833,-0.421875,1,0,0,next_trial_button,0,28,28,16,1,beach,invisiblesun,noclouds,2,"752.8089887640449,500",
,,,,,,,gr,gr,gr,f,23,,2021-09-01_16h46.07.407,online_experiment,2021.1.4,Win32,59.91252771,IwAR2Y5IUeharV7jxvhMuM-3kfpRnflW189YLBK2DHbBGd5nZrVPniJRWksv0,FALSE,,"Mozilla/5.0 (Windows NT 10.0; Win64; x64) AppleWebKit/537.36 (KHTML, like Gecko) Chrome/92.0.4515.159 Safari/537.36",1366,657,1366,768,,,,,,,,9,5.7879,0.42578125,-0.42578125,1,0,0,next_trial_button,0,29,29,20,1,landscape,invisiblesun,noclouds,2,"755.192878338279,500",
,,,,,,,gr,gr,gr,f,23,,2021-09-01_16h46.07.407,online_experiment,2021.1.4,Win32,59.91252771,IwAR2Y5IUeharV7jxvhMuM-3kfpRnflW189YLBK2DHbBGd5nZrVPniJRWksv0,FALSE,,"Mozilla/5.0 (Windows NT 10.0; Win64; x64) AppleWebKit/537.36 (KHTML, like Gecko) Chrome/92.0.4515.159 Safari/537.36",1366,657,1366,768,,,,,,,,8,6.2927,0.390625,-0.411458333,1,0,0,next_trial_button,0,30,30,18,1,beach,visiblesun,noclouds,2,"666.6666666666666,500",
,,,,,,,gr,gr,gr,f,23,,2021-09-01_16h46.07.407,online_experiment,2021.1.4,Win32,59.91252771,IwAR2Y5IUeharV7jxvhMuM-3kfpRnflW189YLBK2DHbBGd5nZrVPniJRWksv0,FALSE,,"Mozilla/5.0 (Windows NT 10.0; Win64; x64) AppleWebKit/537.36 (KHTML, like Gecko) Chrome/92.0.4515.159 Safari/537.36",1366,657,1366,768,,,,,,,,8,5.6966,0.407552083,-0.430989583,1,0,0,next_trial_button,0,31,31,49,1,beach,invisiblesun,yesclouds,6,"858.4474885844749,500",
,,,,,,,gr,gr,gr,f,23,,2021-09-01_16h46.07.407,online_experiment,2021.1.4,Win32,59.91252771,IwAR2Y5IUeharV7jxvhMuM-3kfpRnflW189YLBK2DHbBGd5nZrVPniJRWksv0,FALSE,,"Mozilla/5.0 (Windows NT 10.0; Win64; x64) AppleWebKit/537.36 (KHTML, like Gecko) Chrome/92.0.4515.159 Safari/537.36",1366,657,1366,768,,,,,,,,7,10.3418,0.419270833,-0.427083333,1,0,0,next_trial_button,0,32,32,38,1,landscape,visiblesun,noclouds,4,"733.3333333333333,500",
,,,,,,,gr,gr,gr,f,23,,2021-09-01_16h46.07.407,online_experiment,2021.1.4,Win32,59.91252771,IwAR2Y5IUeharV7jxvhMuM-3kfpRnflW189YLBK2DHbBGd5nZrVPniJRWksv0,FALSE,,"Mozilla/5.0 (Windows NT 10.0; Win64; x64) AppleWebKit/537.36 (KHTML, like Gecko) Chrome/92.0.4515.159 Safari/537.36",1366,657,1366,768,,,,,,,,7,9.0428,0.38671875,-0.385416667,1,0,0,next_trial_button,0,33,33,0,1,beach,invisiblesun,noclouds,0,"750,500",
,,,,,,,gr,gr,gr,f,23,,2021-09-01_16h46.07.407,online_experiment,2021.1.4,Win32,59.91252771,IwAR2Y5IUeharV7jxvhMuM-3kfpRnflW189YLBK2DHbBGd5nZrVPniJRWksv0,FALSE,,"Mozilla/5.0 (Windows NT 10.0; Win64; x64) AppleWebKit/537.36 (KHTML, like Gecko) Chrome/92.0.4515.159 Safari/537.36",1366,657,1366,768,,,,,,,,8,6.7779,0.43359375,-0.412760417,1,0,0,next_trial_button,0,34,34,1,1,beach,invisiblesun,yesclouds,0,"666.6666666666666,500",
,,,,,,,gr,gr,gr,f,23,,2021-09-01_16h46.07.407,online_experiment,2021.1.4,Win32,59.91252771,IwAR2Y5IUeharV7jxvhMuM-3kfpRnflW189YLBK2DHbBGd5nZrVPniJRWksv0,FALSE,,"Mozilla/5.0 (Windows NT 10.0; Win64; x64) AppleWebKit/537.36 (KHTML, like Gecko) Chrome/92.0.4515.159 Safari/537.36",1366,657,1366,768,,,,,,,,9,6.1005,0.44140625,-0.419270833,1,0,0,next_trial_button,0,35,35,4,1,landscape,invisiblesun,noclouds,0,"1276.9171185127807,500",
,,,,,,,gr,gr,gr,f,23,,2021-09-01_16h46.07.407,online_experiment,2021.1.4,Win32,59.91252771,IwAR2Y5IUeharV7jxvhMuM-3kfpRnflW189YLBK2DHbBGd5nZrVPniJRWksv0,FALSE,,"Mozilla/5.0 (Windows NT 10.0; Win64; x64) AppleWebKit/537.36 (KHTML, like Gecko) Chrome/92.0.4515.159 Safari/537.36",1366,657,1366,768,,,,,,,,8,10.1029,0.404947917,-0.390625,1,0,0,next_trial_button,0,36,36,69,1,landscape,invisiblesun,yesclouds,8,"750,500",
,,,,,,,gr,gr,gr,f,23,,2021-09-01_16h46.07.407,online_experiment,2021.1.4,Win32,59.91252771,IwAR2Y5IUeharV7jxvhMuM-3kfpRnflW189YLBK2DHbBGd5nZrVPniJRWksv0,FALSE,,"Mozilla/5.0 (Windows NT 10.0; Win64; x64) AppleWebKit/537.36 (KHTML, like Gecko) Chrome/92.0.4515.159 Safari/537.36",1366,657,1366,768,,,,,,,,8,6.6273,0.390625,-0.397135417,1,0,0,next_trial_button,0,37,37,56,1,beach,invisiblesun,noclouds,7,"1028.5714285714284,500",
,,,,,,,gr,gr,gr,f,23,,2021-09-01_16h46.07.407,online_experiment,2021.1.4,Win32,59.91252771,IwAR2Y5IUeharV7jxvhMuM-3kfpRnflW189YLBK2DHbBGd5nZrVPniJRWksv0,FALSE,,"Mozilla/5.0 (Windows NT 10.0; Win64; x64) AppleWebKit/537.36 (KHTML, like Gecko) Chrome/92.0.4515.159 Safari/537.36",1366,657,1366,768,,,,,,,,6,8.5018,0.399739583,-0.40234375,1,0,0,next_trial_button,0,38,38,19,1,beach,visiblesun,yesclouds,2,"770.1393095093882,500",
,,,,,,,gr,gr,gr,f,23,,2021-09-01_16h46.07.407,online_experiment,2021.1.4,Win32,59.91252771,IwAR2Y5IUeharV7jxvhMuM-3kfpRnflW189YLBK2DHbBGd5nZrVPniJRWksv0,FALSE,,"Mozilla/5.0 (Windows NT 10.0; Win64; x64) AppleWebKit/537.36 (KHTML, like Gecko) Chrome/92.0.4515.159 Safari/537.36",1366,657,1366,768,,,,,,,,6,4.9651,0.365885417,-0.411458333,1,0,0,next_trial_button,0,39,39,65,1,beach,invisiblesun,yesclouds,8,"750,500",
,,,,,,,gr,gr,gr,f,23,,2021-09-01_16h46.07.407,online_experiment,2021.1.4,Win32,59.91252771,IwAR2Y5IUeharV7jxvhMuM-3kfpRnflW189YLBK2DHbBGd5nZrVPniJRWksv0,FALSE,,"Mozilla/5.0 (Windows NT 10.0; Win64; x64) AppleWebKit/537.36 (KHTML, like Gecko) Chrome/92.0.4515.159 Safari/537.36",1366,657,1366,768,,,,,,,,6,8.3295,0.423177083,-0.3984375,1,0,0,next_trial_button,0,40,40,32,1,beach,invisiblesun,noclouds,4,"750,500",
,,,,,,,gr,gr,gr,f,23,,2021-09-01_16h46.07.407,online_experiment,2021.1.4,Win32,59.91252771,IwAR2Y5IUeharV7jxvhMuM-3kfpRnflW189YLBK2DHbBGd5nZrVPniJRWksv0,FALSE,,"Mozilla/5.0 (Windows NT 10.0; Win64; x64) AppleWebKit/537.36 (KHTML, like Gecko) Chrome/92.0.4515.159 Safari/537.36",1366,657,1366,768,,,,,,,,7,6.713,0.416666667,-0.415364583,1,0,0,next_trial_button,0,41,41,14,1,landscape,visiblesun,noclouds,1,"745.9919839679359,500",
,,,,,,,gr,gr,gr,f,23,,2021-09-01_16h46.07.407,online_experiment,2021.1.4,Win32,59.91252771,IwAR2Y5IUeharV7jxvhMuM-3kfpRnflW189YLBK2DHbBGd5nZrVPniJRWksv0,FALSE,,"Mozilla/5.0 (Windows NT 10.0; Win64; x64) AppleWebKit/537.36 (KHTML, like Gecko) Chrome/92.0.4515.159 Safari/537.36",1366,657,1366,768,,,,,,,,8,5.4303,0.438802083,-0.401041667,1,0,0,next_trial_button,0,42,42,70,1,landscape,visiblesun,noclouds,8,"666.6666666666666,500",
,,,,,,,gr,gr,gr,f,23,,2021-09-01_16h46.07.407,online_experiment,2021.1.4,Win32,59.91252771,IwAR2Y5IUeharV7jxvhMuM-3kfpRnflW189YLBK2DHbBGd5nZrVPniJRWksv0,FALSE,,"Mozilla/5.0 (Windows NT 10.0; Win64; x64) AppleWebKit/537.36 (KHTML, like Gecko) Chrome/92.0.4515.159 Safari/537.36",1366,657,1366,768,,,,,,,,10,11.5199,0.385416667,-0.395833333,1,0,0,next_trial_button,0,43,43,45,1,landscape,invisiblesun,yesclouds,5,"749.6251874062968,500",
,,,,,,,gr,gr,gr,f,23,,2021-09-01_16h46.07.407,online_experiment,2021.1.4,Win32,59.91252771,IwAR2Y5IUeharV7jxvhMuM-3kfpRnflW189YLBK2DHbBGd5nZrVPniJRWksv0,FALSE,,"Mozilla/5.0 (Windows NT 10.0; Win64; x64) AppleWebKit/537.36 (KHTML, like Gecko) Chrome/92.0.4515.159 Safari/537.36",1366,657,1366,768,,,,,,,,4,2.8544,0.4140625,-0.419270833,1,0,0,next_trial_button,0,44,44,30,1,landscape,visiblesun,noclouds,3,"346.3035019455253,500",
,,,,,,,gr,gr,gr,f,23,,2021-09-01_16h46.07.407,online_experiment,2021.1.4,Win32,59.91252771,IwAR2Y5IUeharV7jxvhMuM-3kfpRnflW189YLBK2DHbBGd5nZrVPniJRWksv0,FALSE,,"Mozilla/5.0 (Windows NT 10.0; Win64; x64) AppleWebKit/537.36 (KHTML, like Gecko) Chrome/92.0.4515.159 Safari/537.36",1366,657,1366,768,,,,,,,,6,4.4008,0.40625,-0.408854167,1,0,0,next_trial_button,0,45,45,59,1,beach,visiblesun,yesclouds,7,"888.9689978370584,500",
,,,,,,,gr,gr,gr,f,23,,2021-09-01_16h46.07.407,online_experiment,2021.1.4,Win32,59.91252771,IwAR2Y5IUeharV7jxvhMuM-3kfpRnflW189YLBK2DHbBGd5nZrVPniJRWksv0,FALSE,,"Mozilla/5.0 (Windows NT 10.0; Win64; x64) AppleWebKit/537.36 (KHTML, like Gecko) Chrome/92.0.4515.159 Safari/537.36",1366,657,1366,768,,,,,,,,5,6.0174,0.385416667,-0.427083333,1,0,0,next_trial_button,0,46,46,39,1,landscape,visiblesun,yesclouds,4,"749.7656982193065,500",
,,,,,,,gr,gr,gr,f,23,,2021-09-01_16h46.07.407,online_experiment,2021.1.4,Win32,59.91252771,IwAR2Y5IUeharV7jxvhMuM-3kfpRnflW189YLBK2DHbBGd5nZrVPniJRWksv0,FALSE,,"Mozilla/5.0 (Windows NT 10.0; Win64; x64) AppleWebKit/537.36 (KHTML, like Gecko) Chrome/92.0.4515.159 Safari/537.36",1366,657,1366,768,,,,,,,,3,3.5021,0.375,-0.41015625,1,0,0,next_trial_button,0,47,47,52,1,landscape,invisiblesun,noclouds,6,"666.6666666666666,500",
,,,,,,,gr,gr,gr,f,23,,2021-09-01_16h46.07.407,online_experiment,2021.1.4,Win32,59.91252771,IwAR2Y5IUeharV7jxvhMuM-3kfpRnflW189YLBK2DHbBGd5nZrVPniJRWksv0,FALSE,,"Mozilla/5.0 (Windows NT 10.0; Win64; x64) AppleWebKit/537.36 (KHTML, like Gecko) Chrome/92.0.4515.159 Safari/537.36",1366,657,1366,768,,,,,,,,6,5.4794,0.36328125,-0.415364583,1,0,0,next_trial_button,0,48,48,21,1,landscape,invisiblesun,yesclouds,2,"750,500",
,,,,,,,gr,gr,gr,f,23,,2021-09-01_16h46.07.407,online_experiment,2021.1.4,Win32,59.91252771,IwAR2Y5IUeharV7jxvhMuM-3kfpRnflW189YLBK2DHbBGd5nZrVPniJRWksv0,FALSE,,"Mozilla/5.0 (Windows NT 10.0; Win64; x64) AppleWebKit/537.36 (KHTML, like Gecko) Chrome/92.0.4515.159 Safari/537.36",1366,657,1366,768,,,,,,,,8,5.1725,0.415364583,-0.404947917,1,0,0,next_trial_button,0,49,49,34,1,beach,visiblesun,noclouds,4,"749.6251874062968,500",
,,,,,,,gr,gr,gr,f,23,,2021-09-01_16h46.07.407,online_experiment,2021.1.4,Win32,59.91252771,IwAR2Y5IUeharV7jxvhMuM-3kfpRnflW189YLBK2DHbBGd5nZrVPniJRWksv0,FALSE,,"Mozilla/5.0 (Windows NT 10.0; Win64; x64) AppleWebKit/537.36 (KHTML, like Gecko) Chrome/92.0.4515.159 Safari/537.36",1366,657,1366,768,,,,,,,,4,5.5613,0.3828125,-0.407552083,1,0,0,next_trial_button,0,50,50,58,1,beach,visiblesun,noclouds,7,"1028.5714285714284,500",
,,,,,,,gr,gr,gr,f,23,,2021-09-01_16h46.07.407,online_experiment,2021.1.4,Win32,59.91252771,IwAR2Y5IUeharV7jxvhMuM-3kfpRnflW189YLBK2DHbBGd5nZrVPniJRWksv0,FALSE,,"Mozilla/5.0 (Windows NT 10.0; Win64; x64) AppleWebKit/537.36 (KHTML, like Gecko) Chrome/92.0.4515.159 Safari/537.36",1366,657,1366,768,,,,,,,,6,3.2307,0.381510417,-0.395833333,1,0,0,next_trial_button,0,51,51,62,1,landscape,visiblesun,noclouds,7,"417.42389822807814,500",
,,,,,,,gr,gr,gr,f,23,,2021-09-01_16h46.07.407,online_experiment,2021.1.4,Win32,59.91252771,IwAR2Y5IUeharV7jxvhMuM-3kfpRnflW189YLBK2DHbBGd5nZrVPniJRWksv0,FALSE,,"Mozilla/5.0 (Windows NT 10.0; Win64; x64) AppleWebKit/537.36 (KHTML, like Gecko) Chrome/92.0.4515.159 Safari/537.36",1366,657,1366,768,,,,,,,,5,9.5658,0.440104167,-0.438802083,1,0,0,next_trial_button,0,52,52,41,1,beach,invisiblesun,yesclouds,5,"1248.4394506866417,500",
,,,,,,,gr,gr,gr,f,23,,2021-09-01_16h46.07.407,online_experiment,2021.1.4,Win32,59.91252771,IwAR2Y5IUeharV7jxvhMuM-3kfpRnflW189YLBK2DHbBGd5nZrVPniJRWksv0,FALSE,,"Mozilla/5.0 (Windows NT 10.0; Win64; x64) AppleWebKit/537.36 (KHTML, like Gecko) Chrome/92.0.4515.159 Safari/537.36",1366,657,1366,768,,,,,,,,7,5.7526,0.399739583,-0.390625,1,0,0,next_trial_button,0,53,53,66,1,beach,visiblesun,noclouds,8,"1028.5714285714284,500",
,,,,,,,gr,gr,gr,f,23,,2021-09-01_16h46.07.407,online_experiment,2021.1.4,Win32,59.91252771,IwAR2Y5IUeharV7jxvhMuM-3kfpRnflW189YLBK2DHbBGd5nZrVPniJRWksv0,FALSE,,"Mozilla/5.0 (Windows NT 10.0; Win64; x64) AppleWebKit/537.36 (KHTML, like Gecko) Chrome/92.0.4515.159 Safari/537.36",1366,657,1366,768,,,,,,,,5,6.3208,0.385416667,-0.416666667,1,0,0,next_trial_button,0,54,54,77,1,landscape,invisiblesun,yesclouds,9,"888.8888888888888,500",
,,,,,,,gr,gr,gr,f,23,,2021-09-01_16h46.07.407,online_experiment,2021.1.4,Win32,59.91252771,IwAR2Y5IUeharV7jxvhMuM-3kfpRnflW189YLBK2DHbBGd5nZrVPniJRWksv0,FALSE,,"Mozilla/5.0 (Windows NT 10.0; Win64; x64) AppleWebKit/537.36 (KHTML, like Gecko) Chrome/92.0.4515.159 Safari/537.36",1366,657,1366,768,,,,,,,,5,5.9024,0.39453125,-0.420572917,1,0,0,next_trial_button,0,55,55,44,1,landscape,invisiblesun,noclouds,5,"666.6666666666666,500",
,,,,,,,gr,gr,gr,f,23,,2021-09-01_16h46.07.407,online_experiment,2021.1.4,Win32,59.91252771,IwAR2Y5IUeharV7jxvhMuM-3kfpRnflW189YLBK2DHbBGd5nZrVPniJRWksv0,FALSE,,"Mozilla/5.0 (Windows NT 10.0; Win64; x64) AppleWebKit/537.36 (KHTML, like Gecko) Chrome/92.0.4515.159 Safari/537.36",1366,657,1366,768,,,,,,,,8,5.0695,0.384114583,-0.42578125,1,0,0,next_trial_button,0,56,56,8,1,beach,invisiblesun,noclouds,1,"1215.1898734177216,500",
,,,,,,,gr,gr,gr,f,23,,2021-09-01_16h46.07.407,online_experiment,2021.1.4,Win32,59.91252771,IwAR2Y5IUeharV7jxvhMuM-3kfpRnflW189YLBK2DHbBGd5nZrVPniJRWksv0,FALSE,,"Mozilla/5.0 (Windows NT 10.0; Win64; x64) AppleWebKit/537.36 (KHTML, like Gecko) Chrome/92.0.4515.159 Safari/537.36",1366,657,1366,768,,,,,,,,8,3.5666,0.380208333,-0.41015625,1,0,0,next_trial_button,0,57,57,71,1,landscape,visiblesun,yesclouds,8,"666.6666666666666,500",
,,,,,,,gr,gr,gr,f,23,,2021-09-01_16h46.07.407,online_experiment,2021.1.4,Win32,59.91252771,IwAR2Y5IUeharV7jxvhMuM-3kfpRnflW189YLBK2DHbBGd5nZrVPniJRWksv0,FALSE,,"Mozilla/5.0 (Windows NT 10.0; Win64; x64) AppleWebKit/537.36 (KHTML, like Gecko) Chrome/92.0.4515.159 Safari/537.36",1366,657,1366,768,,,,,,,,6,6.0718,0.3828125,-0.404947917,1,0,0,next_trial_button,0,58,58,13,1,landscape,invisiblesun,yesclouds,1,"783.1192660550458,500",
,,,,,,,gr,gr,gr,f,23,,2021-09-01_16h46.07.407,online_experiment,2021.1.4,Win32,59.91252771,IwAR2Y5IUeharV7jxvhMuM-3kfpRnflW189YLBK2DHbBGd5nZrVPniJRWksv0,FALSE,,"Mozilla/5.0 (Windows NT 10.0; Win64; x64) AppleWebKit/537.36 (KHTML, like Gecko) Chrome/92.0.4515.159 Safari/537.36",1366,657,1366,768,,,,,,,,8,8.0093,0.372395833,-0.419270833,1,0,0,next_trial_button,0,59,59,27,1,beach,visiblesun,yesclouds,3,"752.8089887640449,500",
,,,,,,,gr,gr,gr,f,23,,2021-09-01_16h46.07.407,online_experiment,2021.1.4,Win32,59.91252771,IwAR2Y5IUeharV7jxvhMuM-3kfpRnflW189YLBK2DHbBGd5nZrVPniJRWksv0,FALSE,,"Mozilla/5.0 (Windows NT 10.0; Win64; x64) AppleWebKit/537.36 (KHTML, like Gecko) Chrome/92.0.4515.159 Safari/537.36",1366,657,1366,768,,,,,,,,5,5.2056,0.407552083,-0.424479167,1,0,0,next_trial_button,0,60,60,22,1,landscape,visiblesun,noclouds,2,"749.3333333333333,500",
,,,,,,,gr,gr,gr,f,23,,2021-09-01_16h46.07.407,online_experiment,2021.1.4,Win32,59.91252771,IwAR2Y5IUeharV7jxvhMuM-3kfpRnflW189YLBK2DHbBGd5nZrVPniJRWksv0,FALSE,,"Mozilla/5.0 (Windows NT 10.0; Win64; x64) AppleWebKit/537.36 (KHTML, like Gecko) Chrome/92.0.4515.159 Safari/537.36",1366,657,1366,768,,,,,,,,6,6.0717,0.41796875,-0.40625,1,0,0,next_trial_button,0,61,61,10,1,beach,visiblesun,noclouds,1,"747.0261697065821,500",
,,,,,,,gr,gr,gr,f,23,,2021-09-01_16h46.07.407,online_experiment,2021.1.4,Win32,59.91252771,IwAR2Y5IUeharV7jxvhMuM-3kfpRnflW189YLBK2DHbBGd5nZrVPniJRWksv0,FALSE,,"Mozilla/5.0 (Windows NT 10.0; Win64; x64) AppleWebKit/537.36 (KHTML, like Gecko) Chrome/92.0.4515.159 Safari/537.36",1366,657,1366,768,,,,,,,,8,13.9957,0.447916667,-0.436197917,1,0,0,next_trial_button,0,62,62,42,1,beach,visiblesun,noclouds,5,"834.4594594594595,500",
,,,,,,,gr,gr,gr,f,23,,2021-09-01_16h46.07.407,online_experiment,2021.1.4,Win32,59.91252771,IwAR2Y5IUeharV7jxvhMuM-3kfpRnflW189YLBK2DHbBGd5nZrVPniJRWksv0,FALSE,,"Mozilla/5.0 (Windows NT 10.0; Win64; x64) AppleWebKit/537.36 (KHTML, like Gecko) Chrome/92.0.4515.159 Safari/537.36",1366,657,1366,768,,,,,,,,9,4.7876,0.428385417,-0.415364583,1,0,0,next_trial_button,0,63,63,15,1,landscape,visiblesun,yesclouds,1,"333.3333333333333,500",
,,,,,,,gr,gr,gr,f,23,,2021-09-01_16h46.07.407,online_experiment,2021.1.4,Win32,59.91252771,IwAR2Y5IUeharV7jxvhMuM-3kfpRnflW189YLBK2DHbBGd5nZrVPniJRWksv0,FALSE,,"Mozilla/5.0 (Windows NT 10.0; Win64; x64) AppleWebKit/537.36 (KHTML, like Gecko) Chrome/92.0.4515.159 Safari/537.36",1366,657,1366,768,,,,,,,,9,5.1985,0.372395833,-0.411458333,1,0,0,next_trial_button,0,64,64,57,1,beach,invisiblesun,yesclouds,7,"749.707488299532,500",
,,,,,,,gr,gr,gr,f,23,,2021-09-01_16h46.07.407,online_experiment,2021.1.4,Win32,59.91252771,IwAR2Y5IUeharV7jxvhMuM-3kfpRnflW189YLBK2DHbBGd5nZrVPniJRWksv0,FALSE,,"Mozilla/5.0 (Windows NT 10.0; Win64; x64) AppleWebKit/537.36 (KHTML, like Gecko) Chrome/92.0.4515.159 Safari/537.36",1366,657,1366,768,,,,,,,,8,3.6442,0.397135417,-0.420572917,1,0,0,next_trial_button,0,65,65,67,1,beach,visiblesun,yesclouds,8,"748.1481481481482,500",
,,,,,,,gr,gr,gr,f,23,,2021-09-01_16h46.07.407,online_experiment,2021.1.4,Win32,59.91252771,IwAR2Y5IUeharV7jxvhMuM-3kfpRnflW189YLBK2DHbBGd5nZrVPniJRWksv0,FALSE,,"Mozilla/5.0 (Windows NT 10.0; Win64; x64) AppleWebKit/537.36 (KHTML, like Gecko) Chrome/92.0.4515.159 Safari/537.36",1366,657,1366,768,,,,,,,,5,4.1189,0.427083333,-0.40625,1,0,0,next_trial_button,0,66,66,72,1,beach,invisiblesun,noclouds,9,"888.8888888888888,500",
,,,,,,,gr,gr,gr,f,23,,2021-09-01_16h46.07.407,online_experiment,2021.1.4,Win32,59.91252771,IwAR2Y5IUeharV7jxvhMuM-3kfpRnflW189YLBK2DHbBGd5nZrVPniJRWksv0,FALSE,,"Mozilla/5.0 (Windows NT 10.0; Win64; x64) AppleWebKit/537.36 (KHTML, like Gecko) Chrome/92.0.4515.159 Safari/537.36",1366,657,1366,768,,,,,,,,6,6.5059,0.49609375,-0.412760417,1,0,0,next_trial_button,0,67,67,54,1,landscape,visiblesun,noclouds,6,"695.0043821209465,500",
,,,,,,,gr,gr,gr,f,23,,2021-09-01_16h46.07.407,online_experiment,2021.1.4,Win32,59.91252771,IwAR2Y5IUeharV7jxvhMuM-3kfpRnflW189YLBK2DHbBGd5nZrVPniJRWksv0,FALSE,,"Mozilla/5.0 (Windows NT 10.0; Win64; x64) AppleWebKit/537.36 (KHTML, like Gecko) Chrome/92.0.4515.159 Safari/537.36",1366,657,1366,768,,,,,,,,8,4.7061,0.391927083,-0.41796875,1,0,0,next_trial_button,0,68,68,36,1,landscape,invisiblesun,noclouds,4,"281.25,500",
,,,,,,,gr,gr,gr,f,23,,2021-09-01_16h46.07.407,online_experiment,2021.1.4,Win32,59.91252771,IwAR2Y5IUeharV7jxvhMuM-3kfpRnflW189YLBK2DHbBGd5nZrVPniJRWksv0,FALSE,,"Mozilla/5.0 (Windows NT 10.0; Win64; x64) AppleWebKit/537.36 (KHTML, like Gecko) Chrome/92.0.4515.159 Safari/537.36",1366,657,1366,768,,,,,,,,9,5.3898,0.44921875,-0.40234375,1,0,0,next_trial_button,0,69,69,61,1,landscape,invisiblesun,yesclouds,7,"500,500",
,,,,,,,gr,gr,gr,f,23,,2021-09-01_16h46.07.407,online_experiment,2021.1.4,Win32,59.91252771,IwAR2Y5IUeharV7jxvhMuM-3kfpRnflW189YLBK2DHbBGd5nZrVPniJRWksv0,FALSE,,"Mozilla/5.0 (Windows NT 10.0; Win64; x64) AppleWebKit/537.36 (KHTML, like Gecko) Chrome/92.0.4515.159 Safari/537.36",1366,657,1366,768,,,,,,,,6,4.0418,0.471354167,-0.420572917,1,0,0,next_trial_button,0,70,70,2,1,beach,visiblesun,noclouds,0,"375,500",
,,,,,,,gr,gr,gr,f,23,,2021-09-01_16h46.07.407,online_experiment,2021.1.4,Win32,59.91252771,IwAR2Y5IUeharV7jxvhMuM-3kfpRnflW189YLBK2DHbBGd5nZrVPniJRWksv0,FALSE,,"Mozilla/5.0 (Windows NT 10.0; Win64; x64) AppleWebKit/537.36 (KHTML, like Gecko) Chrome/92.0.4515.159 Safari/537.36",1366,657,1366,768,,,,,,,,10,5.2592,0.440104167,-0.440104167,1,0,0,next_trial_button,0,71,71,53,1,landscape,invisiblesun,yesclouds,6,"750.0695023630803,500",
,,,,,,,gr,gr,gr,f,23,,2021-09-01_16h46.07.407,online_experiment,2021.1.4,Win32,59.91252771,IwAR2Y5IUeharV7jxvhMuM-3kfpRnflW189YLBK2DHbBGd5nZrVPniJRWksv0,FALSE,,"Mozilla/5.0 (Windows NT 10.0; Win64; x64) AppleWebKit/537.36 (KHTML, like Gecko) Chrome/92.0.4515.159 Safari/537.36",1366,657,1366,768,,,,,,,,6,5.6631,0.432291667,-0.427083333,1,0,0,next_trial_button,0,72,72,43,1,beach,visiblesun,yesclouds,5,"750,500",
,,,,,,,gr,gr,gr,f,23,,2021-09-01_16h46.07.407,online_experiment,2021.1.4,Win32,59.91252771,IwAR2Y5IUeharV7jxvhMuM-3kfpRnflW189YLBK2DHbBGd5nZrVPniJRWksv0,FALSE,,"Mozilla/5.0 (Windows NT 10.0; Win64; x64) AppleWebKit/537.36 (KHTML, like Gecko) Chrome/92.0.4515.159 Safari/537.36",1366,657,1366,768,,,,,,,,7,4.1371,0.447916667,-0.4140625,1,0,0,next_trial_button,0,73,73,64,1,beach,invisiblesun,noclouds,8,"1028.5714285714284,500",
,,,,,,,gr,gr,gr,f,23,,2021-09-01_16h46.07.407,online_experiment,2021.1.4,Win32,59.91252771,IwAR2Y5IUeharV7jxvhMuM-3kfpRnflW189YLBK2DHbBGd5nZrVPniJRWksv0,FALSE,,"Mozilla/5.0 (Windows NT 10.0; Win64; x64) AppleWebKit/537.36 (KHTML, like Gecko) Chrome/92.0.4515.159 Safari/537.36",1366,657,1366,768,,,,,,,,8,5.6154,0.43359375,-0.401041667,1,0,0,next_trial_button,0,74,74,76,1,landscape,invisiblesun,noclouds,9,"1056.6037735849056,500",
,,,,,,,gr,gr,gr,f,23,,2021-09-01_16h46.07.407,online_experiment,2021.1.4,Win32,59.91252771,IwAR2Y5IUeharV7jxvhMuM-3kfpRnflW189YLBK2DHbBGd5nZrVPniJRWksv0,FALSE,,"Mozilla/5.0 (Windows NT 10.0; Win64; x64) AppleWebKit/537.36 (KHTML, like Gecko) Chrome/92.0.4515.159 Safari/537.36",1366,657,1366,768,,,,,,,,8,4.5136,0.376302083,-0.41796875,1,0,0,next_trial_button,0,75,75,78,1,landscape,visiblesun,noclouds,9,"666.6666666666666,500",
,,,,,,,gr,gr,gr,f,23,,2021-09-01_16h46.07.407,online_experiment,2021.1.4,Win32,59.91252771,IwAR2Y5IUeharV7jxvhMuM-3kfpRnflW189YLBK2DHbBGd5nZrVPniJRWksv0,FALSE,,"Mozilla/5.0 (Windows NT 10.0; Win64; x64) AppleWebKit/537.36 (KHTML, like Gecko) Chrome/92.0.4515.159 Safari/537.36",1366,657,1366,768,,,,,,,,8,4.1085,0.454427083,-0.408854167,1,0,0,next_trial_button,0,76,76,51,1,beach,visiblesun,yesclouds,6,"657.1279916753382,500",
,,,,,,,gr,gr,gr,f,23,,2021-09-01_16h46.07.407,online_experiment,2021.1.4,Win32,59.91252771,IwAR2Y5IUeharV7jxvhMuM-3kfpRnflW189YLBK2DHbBGd5nZrVPniJRWksv0,FALSE,,"Mozilla/5.0 (Windows NT 10.0; Win64; x64) AppleWebKit/537.36 (KHTML, like Gecko) Chrome/92.0.4515.159 Safari/537.36",1366,657,1366,768,,,,,,,,9,7.0602,0.421875,-0.404947917,1,0,0,next_trial_button,0,77,77,33,1,beach,invisiblesun,yesclouds,4,"751.5473032714411,500",
,,,,,,,gr,gr,gr,f,23,,2021-09-01_16h46.07.407,online_experiment,2021.1.4,Win32,59.91252771,IwAR2Y5IUeharV7jxvhMuM-3kfpRnflW189YLBK2DHbBGd5nZrVPniJRWksv0,FALSE,,"Mozilla/5.0 (Windows NT 10.0; Win64; x64) AppleWebKit/537.36 (KHTML, like Gecko) Chrome/92.0.4515.159 Safari/537.36",1366,657,1366,768,,,,,,,,7,6.0175,0.432291667,-0.412760417,1,0,0,next_trial_button,0,78,78,9,1,beach,invisiblesun,yesclouds,1,"750,500",
,,,,,,,gr,gr,gr,f,23,,2021-09-01_16h46.07.407,online_experiment,2021.1.4,Win32,59.91252771,IwAR2Y5IUeharV7jxvhMuM-3kfpRnflW189YLBK2DHbBGd5nZrVPniJRWksv0,FALSE,,"Mozilla/5.0 (Windows NT 10.0; Win64; x64) AppleWebKit/537.36 (KHTML, like Gecko) Chrome/92.0.4515.159 Safari/537.36",1366,657,1366,768,,,,,,,,5,4.2327,0.424479167,-0.415364583,1,0,0,next_trial_button,0,79,79,35,1,beach,visiblesun,yesclouds,4,"750,500",
,,,,,,,gr,gr,gr,f,23,,2021-09-01_16h46.07.407,online_experiment,2021.1.4,Win32,59.91252771,IwAR2Y5IUeharV7jxvhMuM-3kfpRnflW189YLBK2DHbBGd5nZrVPniJRWksv0,FALSE,,"Mozilla/5.0 (Windows NT 10.0; Win64; x64) AppleWebKit/537.36 (KHTML, like Gecko) Chrome/92.0.4515.159 Safari/537.36",1366,657,1366,768,,,,,,,,,,,,,,,,,,,,,,,,,"750,500",810.9588
