language_mouse.x,language_mouse.y,language_mouse.leftButton,language_mouse.midButton,language_mouse.rightButton,language_mouse.time,language_mouse.clicked_name,nationality,mother_tongue,homeland,gender,age,email,date,expName,psychopyVersion,OS,frameRate,fbclid,cancel_experiment,cancel_reasons,client_agent_information,windowWidth,windowHeight,xRes,yRes,start_exp_mouse.x,start_exp_mouse.y,start_exp_mouse.leftButton,start_exp_mouse.midButton,start_exp_mouse.rightButton,start_exp_mouse.time,start_exp_mouse.clicked_name,rating_slider.response,rating_slider.rt,next_trial_mouse.x,next_trial_mouse.y,next_trial_mouse.leftButton,next_trial_mouse.midButton,next_trial_mouse.rightButton,next_trial_mouse.clicked_name,trials.thisRepN,trials.thisTrialN,trials.thisN,trials.thisIndex,trials.ran,environment,sunVisibility,cloudVisibility,imageId,imgSize,globalClockTime
0.319444444,-0.238888889,1,0,0,2.201,gr_flag,gr,gr,gr,m,19,,2021-08-31_17h41.14.539,online_experiment,2021.1.4,Win32,60.0240096,IwAR2bDhqa9XVt1YqcCNbYtNqpKFpApQm7Kz2k-fXgvURPaTEVxirB2UUHfjE,FALSE,,Mozilla/5.0 (Windows NT 10.0; Win64; x64; rv:91.0) Gecko/20100101 Firefox/91.0,1920,965,1920,1080,,,,,,,,,,,,,,,,,,,,,,,,,,
,,,,,,,gr,gr,gr,m,19,,2021-08-31_17h41.14.539,online_experiment,2021.1.4,Win32,60.0240096,IwAR2bDhqa9XVt1YqcCNbYtNqpKFpApQm7Kz2k-fXgvURPaTEVxirB2UUHfjE,FALSE,,Mozilla/5.0 (Windows NT 10.0; Win64; x64; rv:91.0) Gecko/20100101 Firefox/91.0,1920,965,1920,1080,0.018518519,-0.443518519,1,0,0,9.982,cont_gr,8,4.104,0.503703704,-0.443518519,1,0,0,next_trial_button,0,0,0,12,1,landscape,invisiblesun,noclouds,1,"666.6666666666666,500",
,,,,,,,gr,gr,gr,m,19,,2021-08-31_17h41.14.539,online_experiment,2021.1.4,Win32,60.0240096,IwAR2bDhqa9XVt1YqcCNbYtNqpKFpApQm7Kz2k-fXgvURPaTEVxirB2UUHfjE,FALSE,,Mozilla/5.0 (Windows NT 10.0; Win64; x64; rv:91.0) Gecko/20100101 Firefox/91.0,1920,965,1920,1080,,,,,,,,5,2.662,0.414814815,-0.412962963,1,0,0,next_trial_button,0,1,1,46,1,landscape,visiblesun,noclouds,5,"750,500",
,,,,,,,gr,gr,gr,m,19,,2021-08-31_17h41.14.539,online_experiment,2021.1.4,Win32,60.0240096,IwAR2bDhqa9XVt1YqcCNbYtNqpKFpApQm7Kz2k-fXgvURPaTEVxirB2UUHfjE,FALSE,,Mozilla/5.0 (Windows NT 10.0; Win64; x64; rv:91.0) Gecko/20100101 Firefox/91.0,1920,965,1920,1080,,,,,,,,10,2.193,0.513888889,-0.440740741,1,0,0,next_trial_button,0,2,2,38,1,landscape,visiblesun,noclouds,4,"733.3333333333333,500",
,,,,,,,gr,gr,gr,m,19,,2021-08-31_17h41.14.539,online_experiment,2021.1.4,Win32,60.0240096,IwAR2bDhqa9XVt1YqcCNbYtNqpKFpApQm7Kz2k-fXgvURPaTEVxirB2UUHfjE,FALSE,,Mozilla/5.0 (Windows NT 10.0; Win64; x64; rv:91.0) Gecko/20100101 Firefox/91.0,1920,965,1920,1080,,,,,,,,7,5.644,0.438888889,-0.40462963,1,0,0,next_trial_button,0,3,3,74,1,beach,visiblesun,noclouds,9,"1028.5714285714284,500",
,,,,,,,gr,gr,gr,m,19,,2021-08-31_17h41.14.539,online_experiment,2021.1.4,Win32,60.0240096,IwAR2bDhqa9XVt1YqcCNbYtNqpKFpApQm7Kz2k-fXgvURPaTEVxirB2UUHfjE,FALSE,,Mozilla/5.0 (Windows NT 10.0; Win64; x64; rv:91.0) Gecko/20100101 Firefox/91.0,1920,965,1920,1080,,,,,,,,7,3.892,0.388888889,-0.410185185,1,0,0,next_trial_button,0,4,4,52,1,landscape,invisiblesun,noclouds,6,"666.6666666666666,500",
,,,,,,,gr,gr,gr,m,19,,2021-08-31_17h41.14.539,online_experiment,2021.1.4,Win32,60.0240096,IwAR2bDhqa9XVt1YqcCNbYtNqpKFpApQm7Kz2k-fXgvURPaTEVxirB2UUHfjE,FALSE,,Mozilla/5.0 (Windows NT 10.0; Win64; x64; rv:91.0) Gecko/20100101 Firefox/91.0,1920,965,1920,1080,,,,,,,,10,1.576,0.441666667,-0.394444444,1,0,0,next_trial_button,0,5,5,33,1,beach,invisiblesun,yesclouds,4,"751.5473032714411,500",
,,,,,,,gr,gr,gr,m,19,,2021-08-31_17h41.14.539,online_experiment,2021.1.4,Win32,60.0240096,IwAR2bDhqa9XVt1YqcCNbYtNqpKFpApQm7Kz2k-fXgvURPaTEVxirB2UUHfjE,FALSE,,Mozilla/5.0 (Windows NT 10.0; Win64; x64; rv:91.0) Gecko/20100101 Firefox/91.0,1920,965,1920,1080,,,,,,,,5,2.667,0.375,-0.428703704,1,0,0,next_trial_button,0,6,6,69,1,landscape,invisiblesun,yesclouds,8,"750,500",
,,,,,,,gr,gr,gr,m,19,,2021-08-31_17h41.14.539,online_experiment,2021.1.4,Win32,60.0240096,IwAR2bDhqa9XVt1YqcCNbYtNqpKFpApQm7Kz2k-fXgvURPaTEVxirB2UUHfjE,FALSE,,Mozilla/5.0 (Windows NT 10.0; Win64; x64; rv:91.0) Gecko/20100101 Firefox/91.0,1920,965,1920,1080,,,,,,,,2,30.46,0.449740933,-0.418134715,1,0,0,next_trial_button,0,7,7,63,1,landscape,visiblesun,yesclouds,7,"331.94444444444446,500",
,,,,,,,gr,gr,gr,m,19,,2021-08-31_17h41.14.539,online_experiment,2021.1.4,Win32,60.0240096,IwAR2bDhqa9XVt1YqcCNbYtNqpKFpApQm7Kz2k-fXgvURPaTEVxirB2UUHfjE,FALSE,,Mozilla/5.0 (Windows NT 10.0; Win64; x64; rv:91.0) Gecko/20100101 Firefox/91.0,1920,965,1920,1080,,,,,,,,3,3.026,0.343005181,-0.422279793,1,0,0,next_trial_button,0,8,8,23,1,landscape,visiblesun,yesclouds,2,"767.97829036635,500",
,,,,,,,gr,gr,gr,m,19,,2021-08-31_17h41.14.539,online_experiment,2021.1.4,Win32,60.0240096,IwAR2bDhqa9XVt1YqcCNbYtNqpKFpApQm7Kz2k-fXgvURPaTEVxirB2UUHfjE,FALSE,,Mozilla/5.0 (Windows NT 10.0; Win64; x64; rv:91.0) Gecko/20100101 Firefox/91.0,1920,965,1920,1080,,,,,,,,3,2.393,0.36373057,-0.413989637,1,0,0,next_trial_button,0,9,9,54,1,landscape,visiblesun,noclouds,6,"695.0043821209465,500",
,,,,,,,gr,gr,gr,m,19,,2021-08-31_17h41.14.539,online_experiment,2021.1.4,Win32,60.0240096,IwAR2bDhqa9XVt1YqcCNbYtNqpKFpApQm7Kz2k-fXgvURPaTEVxirB2UUHfjE,FALSE,,Mozilla/5.0 (Windows NT 10.0; Win64; x64; rv:91.0) Gecko/20100101 Firefox/91.0,1920,965,1920,1080,,,,,,,,8,3.163,0.38238342,-0.396373057,1,0,0,next_trial_button,0,10,10,71,1,landscape,visiblesun,yesclouds,8,"666.6666666666666,500",
,,,,,,,gr,gr,gr,m,19,,2021-08-31_17h41.14.539,online_experiment,2021.1.4,Win32,60.0240096,IwAR2bDhqa9XVt1YqcCNbYtNqpKFpApQm7Kz2k-fXgvURPaTEVxirB2UUHfjE,FALSE,,Mozilla/5.0 (Windows NT 10.0; Win64; x64; rv:91.0) Gecko/20100101 Firefox/91.0,1920,965,1920,1080,,,,,,,,7,2.971,0.451813472,-0.434715026,1,0,0,next_trial_button,0,11,11,7,1,landscape,visiblesun,yesclouds,0,"743.421052631579,500",
,,,,,,,gr,gr,gr,m,19,,2021-08-31_17h41.14.539,online_experiment,2021.1.4,Win32,60.0240096,IwAR2bDhqa9XVt1YqcCNbYtNqpKFpApQm7Kz2k-fXgvURPaTEVxirB2UUHfjE,FALSE,,Mozilla/5.0 (Windows NT 10.0; Win64; x64; rv:91.0) Gecko/20100101 Firefox/91.0,1920,965,1920,1080,,,,,,,,6,4.191,0.487046632,-0.441968912,1,0,0,next_trial_button,0,12,12,43,1,beach,visiblesun,yesclouds,5,"750,500",
,,,,,,,gr,gr,gr,m,19,,2021-08-31_17h41.14.539,online_experiment,2021.1.4,Win32,60.0240096,IwAR2bDhqa9XVt1YqcCNbYtNqpKFpApQm7Kz2k-fXgvURPaTEVxirB2UUHfjE,FALSE,,Mozilla/5.0 (Windows NT 10.0; Win64; x64; rv:91.0) Gecko/20100101 Firefox/91.0,1920,965,1920,1080,,,,,,,,9,1.993,0.377202073,-0.419170984,1,0,0,next_trial_button,0,13,13,53,1,landscape,invisiblesun,yesclouds,6,"750.0695023630803,500",
,,,,,,,gr,gr,gr,m,19,,2021-08-31_17h41.14.539,online_experiment,2021.1.4,Win32,60.0240096,IwAR2bDhqa9XVt1YqcCNbYtNqpKFpApQm7Kz2k-fXgvURPaTEVxirB2UUHfjE,FALSE,,Mozilla/5.0 (Windows NT 10.0; Win64; x64; rv:91.0) Gecko/20100101 Firefox/91.0,1920,965,1920,1080,,,,,,,,10,1.694,0.455958549,-0.413989637,1,0,0,next_trial_button,0,14,14,20,1,landscape,invisiblesun,noclouds,2,"755.192878338279,500",
,,,,,,,gr,gr,gr,m,19,,2021-08-31_17h41.14.539,online_experiment,2021.1.4,Win32,60.0240096,IwAR2bDhqa9XVt1YqcCNbYtNqpKFpApQm7Kz2k-fXgvURPaTEVxirB2UUHfjE,FALSE,,Mozilla/5.0 (Windows NT 10.0; Win64; x64; rv:91.0) Gecko/20100101 Firefox/91.0,1920,965,1920,1080,,,,,,,,6,3.492,0.336787565,-0.422279793,1,0,0,next_trial_button,0,15,15,49,1,beach,invisiblesun,yesclouds,6,"858.4474885844749,500",
,,,,,,,gr,gr,gr,m,19,,2021-08-31_17h41.14.539,online_experiment,2021.1.4,Win32,60.0240096,IwAR2bDhqa9XVt1YqcCNbYtNqpKFpApQm7Kz2k-fXgvURPaTEVxirB2UUHfjE,FALSE,,Mozilla/5.0 (Windows NT 10.0; Win64; x64; rv:91.0) Gecko/20100101 Firefox/91.0,1920,965,1920,1080,,,,,,,,7,2.731,0.388601036,-0.430569948,1,0,0,next_trial_button,0,16,16,76,1,landscape,invisiblesun,noclouds,9,"1056.6037735849056,500",
,,,,,,,gr,gr,gr,m,19,,2021-08-31_17h41.14.539,online_experiment,2021.1.4,Win32,60.0240096,IwAR2bDhqa9XVt1YqcCNbYtNqpKFpApQm7Kz2k-fXgvURPaTEVxirB2UUHfjE,FALSE,,Mozilla/5.0 (Windows NT 10.0; Win64; x64; rv:91.0) Gecko/20100101 Firefox/91.0,1920,965,1920,1080,,,,,,,,7,1.862,0.413471503,-0.417098446,1,0,0,next_trial_button,0,17,17,3,1,beach,visiblesun,yesclouds,0,"1152.5122276567363,500",
,,,,,,,gr,gr,gr,m,19,,2021-08-31_17h41.14.539,online_experiment,2021.1.4,Win32,60.0240096,IwAR2bDhqa9XVt1YqcCNbYtNqpKFpApQm7Kz2k-fXgvURPaTEVxirB2UUHfjE,FALSE,,Mozilla/5.0 (Windows NT 10.0; Win64; x64; rv:91.0) Gecko/20100101 Firefox/91.0,1920,965,1920,1080,,,,,,,,7,2.894,0.357512953,-0.429533679,1,0,0,next_trial_button,0,18,18,24,1,beach,invisiblesun,noclouds,3,"750.089190153407,500",
,,,,,,,gr,gr,gr,m,19,,2021-08-31_17h41.14.539,online_experiment,2021.1.4,Win32,60.0240096,IwAR2bDhqa9XVt1YqcCNbYtNqpKFpApQm7Kz2k-fXgvURPaTEVxirB2UUHfjE,FALSE,,Mozilla/5.0 (Windows NT 10.0; Win64; x64; rv:91.0) Gecko/20100101 Firefox/91.0,1920,965,1920,1080,,,,,,,,6,3.043,0.429015544,-0.44507772,1,0,0,next_trial_button,0,19,19,40,1,beach,invisiblesun,noclouds,5,"1028.5714285714284,500",
,,,,,,,gr,gr,gr,m,19,,2021-08-31_17h41.14.539,online_experiment,2021.1.4,Win32,60.0240096,IwAR2bDhqa9XVt1YqcCNbYtNqpKFpApQm7Kz2k-fXgvURPaTEVxirB2UUHfjE,FALSE,,Mozilla/5.0 (Windows NT 10.0; Win64; x64; rv:91.0) Gecko/20100101 Firefox/91.0,1920,965,1920,1080,,,,,,,,6,2.426,0.458031088,-0.40880829,1,0,0,next_trial_button,0,20,20,62,1,landscape,visiblesun,noclouds,7,"417.42389822807814,500",
,,,,,,,gr,gr,gr,m,19,,2021-08-31_17h41.14.539,online_experiment,2021.1.4,Win32,60.0240096,IwAR2bDhqa9XVt1YqcCNbYtNqpKFpApQm7Kz2k-fXgvURPaTEVxirB2UUHfjE,FALSE,,Mozilla/5.0 (Windows NT 10.0; Win64; x64; rv:91.0) Gecko/20100101 Firefox/91.0,1920,965,1920,1080,,,,,,,,6,5.298,0.440414508,-0.423316062,1,0,0,next_trial_button,0,21,21,66,1,beach,visiblesun,noclouds,8,"1028.5714285714284,500",
,,,,,,,gr,gr,gr,m,19,,2021-08-31_17h41.14.539,online_experiment,2021.1.4,Win32,60.0240096,IwAR2bDhqa9XVt1YqcCNbYtNqpKFpApQm7Kz2k-fXgvURPaTEVxirB2UUHfjE,FALSE,,Mozilla/5.0 (Windows NT 10.0; Win64; x64; rv:91.0) Gecko/20100101 Firefox/91.0,1920,965,1920,1080,,,,,,,,6,2.459,0.486010363,-0.438860104,1,0,0,next_trial_button,0,22,22,30,1,landscape,visiblesun,noclouds,3,"346.3035019455253,500",
,,,,,,,gr,gr,gr,m,19,,2021-08-31_17h41.14.539,online_experiment,2021.1.4,Win32,60.0240096,IwAR2bDhqa9XVt1YqcCNbYtNqpKFpApQm7Kz2k-fXgvURPaTEVxirB2UUHfjE,FALSE,,Mozilla/5.0 (Windows NT 10.0; Win64; x64; rv:91.0) Gecko/20100101 Firefox/91.0,1920,965,1920,1080,,,,,,,,7,4.114,0.52642487,-0.429533679,1,0,0,next_trial_button,0,23,23,47,1,landscape,visiblesun,yesclouds,5,"666.6666666666666,500",
,,,,,,,gr,gr,gr,m,19,,2021-08-31_17h41.14.539,online_experiment,2021.1.4,Win32,60.0240096,IwAR2bDhqa9XVt1YqcCNbYtNqpKFpApQm7Kz2k-fXgvURPaTEVxirB2UUHfjE,FALSE,,Mozilla/5.0 (Windows NT 10.0; Win64; x64; rv:91.0) Gecko/20100101 Firefox/91.0,1920,965,1920,1080,,,,,,,,8,3.043,0.451813472,-0.424352332,1,0,0,next_trial_button,0,24,24,41,1,beach,invisiblesun,yesclouds,5,"1248.4394506866417,500",
,,,,,,,gr,gr,gr,m,19,,2021-08-31_17h41.14.539,online_experiment,2021.1.4,Win32,60.0240096,IwAR2bDhqa9XVt1YqcCNbYtNqpKFpApQm7Kz2k-fXgvURPaTEVxirB2UUHfjE,FALSE,,Mozilla/5.0 (Windows NT 10.0; Win64; x64; rv:91.0) Gecko/20100101 Firefox/91.0,1920,965,1920,1080,,,,,,,,8,2.111,0.480829016,-0.406735751,1,0,0,next_trial_button,0,25,25,15,1,landscape,visiblesun,yesclouds,1,"333.3333333333333,500",
,,,,,,,gr,gr,gr,m,19,,2021-08-31_17h41.14.539,online_experiment,2021.1.4,Win32,60.0240096,IwAR2bDhqa9XVt1YqcCNbYtNqpKFpApQm7Kz2k-fXgvURPaTEVxirB2UUHfjE,FALSE,,Mozilla/5.0 (Windows NT 10.0; Win64; x64; rv:91.0) Gecko/20100101 Firefox/91.0,1920,965,1920,1080,,,,,,,,9,1.796,0.386528497,-0.437823834,1,0,0,next_trial_button,0,26,26,14,1,landscape,visiblesun,noclouds,1,"745.9919839679359,500",
,,,,,,,gr,gr,gr,m,19,,2021-08-31_17h41.14.539,online_experiment,2021.1.4,Win32,60.0240096,IwAR2bDhqa9XVt1YqcCNbYtNqpKFpApQm7Kz2k-fXgvURPaTEVxirB2UUHfjE,FALSE,,Mozilla/5.0 (Windows NT 10.0; Win64; x64; rv:91.0) Gecko/20100101 Firefox/91.0,1920,965,1920,1080,,,,,,,,8,3.846,0.45492228,-0.398445596,1,0,0,next_trial_button,0,27,27,59,1,beach,visiblesun,yesclouds,7,"888.9689978370584,500",
,,,,,,,gr,gr,gr,m,19,,2021-08-31_17h41.14.539,online_experiment,2021.1.4,Win32,60.0240096,IwAR2bDhqa9XVt1YqcCNbYtNqpKFpApQm7Kz2k-fXgvURPaTEVxirB2UUHfjE,FALSE,,Mozilla/5.0 (Windows NT 10.0; Win64; x64; rv:91.0) Gecko/20100101 Firefox/91.0,1920,965,1920,1080,,,,,,,,5,3.043,0.351295337,-0.420207254,1,0,0,next_trial_button,0,28,28,61,1,landscape,invisiblesun,yesclouds,7,"500,500",
,,,,,,,gr,gr,gr,m,19,,2021-08-31_17h41.14.539,online_experiment,2021.1.4,Win32,60.0240096,IwAR2bDhqa9XVt1YqcCNbYtNqpKFpApQm7Kz2k-fXgvURPaTEVxirB2UUHfjE,FALSE,,Mozilla/5.0 (Windows NT 10.0; Win64; x64; rv:91.0) Gecko/20100101 Firefox/91.0,1920,965,1920,1080,,,,,,,,2,2.793,0.448704663,-0.424352332,1,0,0,next_trial_button,0,29,29,44,1,landscape,invisiblesun,noclouds,5,"666.6666666666666,500",
,,,,,,,gr,gr,gr,m,19,,2021-08-31_17h41.14.539,online_experiment,2021.1.4,Win32,60.0240096,IwAR2bDhqa9XVt1YqcCNbYtNqpKFpApQm7Kz2k-fXgvURPaTEVxirB2UUHfjE,FALSE,,Mozilla/5.0 (Windows NT 10.0; Win64; x64; rv:91.0) Gecko/20100101 Firefox/91.0,1920,965,1920,1080,,,,,,,,1,1.541,0.440414508,-0.432642487,1,0,0,next_trial_button,0,30,30,72,1,beach,invisiblesun,noclouds,9,"888.8888888888888,500",
,,,,,,,gr,gr,gr,m,19,,2021-08-31_17h41.14.539,online_experiment,2021.1.4,Win32,60.0240096,IwAR2bDhqa9XVt1YqcCNbYtNqpKFpApQm7Kz2k-fXgvURPaTEVxirB2UUHfjE,FALSE,,Mozilla/5.0 (Windows NT 10.0; Win64; x64; rv:91.0) Gecko/20100101 Firefox/91.0,1920,965,1920,1080,,,,,,,,4,2.345,0.323316062,-0.422279793,1,0,0,next_trial_button,0,31,31,51,1,beach,visiblesun,yesclouds,6,"657.1279916753382,500",
,,,,,,,gr,gr,gr,m,19,,2021-08-31_17h41.14.539,online_experiment,2021.1.4,Win32,60.0240096,IwAR2bDhqa9XVt1YqcCNbYtNqpKFpApQm7Kz2k-fXgvURPaTEVxirB2UUHfjE,FALSE,,Mozilla/5.0 (Windows NT 10.0; Win64; x64; rv:91.0) Gecko/20100101 Firefox/91.0,1920,965,1920,1080,,,,,,,,5,2.014,0.444559585,-0.410880829,1,0,0,next_trial_button,0,32,32,31,1,landscape,visiblesun,yesclouds,3,"638.0622837370242,500",
,,,,,,,gr,gr,gr,m,19,,2021-08-31_17h41.14.539,online_experiment,2021.1.4,Win32,60.0240096,IwAR2bDhqa9XVt1YqcCNbYtNqpKFpApQm7Kz2k-fXgvURPaTEVxirB2UUHfjE,FALSE,,Mozilla/5.0 (Windows NT 10.0; Win64; x64; rv:91.0) Gecko/20100101 Firefox/91.0,1920,965,1920,1080,,,,,,,,6,25.994,0.492227979,-0.425388601,1,0,0,next_trial_button,0,33,33,73,1,beach,invisiblesun,yesclouds,9,"1028.5714285714284,500",
,,,,,,,gr,gr,gr,m,19,,2021-08-31_17h41.14.539,online_experiment,2021.1.4,Win32,60.0240096,IwAR2bDhqa9XVt1YqcCNbYtNqpKFpApQm7Kz2k-fXgvURPaTEVxirB2UUHfjE,FALSE,,Mozilla/5.0 (Windows NT 10.0; Win64; x64; rv:91.0) Gecko/20100101 Firefox/91.0,1920,965,1920,1080,,,,,,,,6,5.797,0.408290155,-0.418134715,1,0,0,next_trial_button,0,34,34,56,1,beach,invisiblesun,noclouds,7,"1028.5714285714284,500",
,,,,,,,gr,gr,gr,m,19,,2021-08-31_17h41.14.539,online_experiment,2021.1.4,Win32,60.0240096,IwAR2bDhqa9XVt1YqcCNbYtNqpKFpApQm7Kz2k-fXgvURPaTEVxirB2UUHfjE,FALSE,,Mozilla/5.0 (Windows NT 10.0; Win64; x64; rv:91.0) Gecko/20100101 Firefox/91.0,1920,965,1920,1080,,,,,,,,8,1.709,0.464248705,-0.439896373,1,0,0,next_trial_button,0,35,35,34,1,beach,visiblesun,noclouds,4,"749.6251874062968,500",
,,,,,,,gr,gr,gr,m,19,,2021-08-31_17h41.14.539,online_experiment,2021.1.4,Win32,60.0240096,IwAR2bDhqa9XVt1YqcCNbYtNqpKFpApQm7Kz2k-fXgvURPaTEVxirB2UUHfjE,FALSE,,Mozilla/5.0 (Windows NT 10.0; Win64; x64; rv:91.0) Gecko/20100101 Firefox/91.0,1920,965,1920,1080,,,,,,,,4,2.06,0.383419689,-0.415025907,1,0,0,next_trial_button,0,36,36,36,1,landscape,invisiblesun,noclouds,4,"281.25,500",
,,,,,,,gr,gr,gr,m,19,,2021-08-31_17h41.14.539,online_experiment,2021.1.4,Win32,60.0240096,IwAR2bDhqa9XVt1YqcCNbYtNqpKFpApQm7Kz2k-fXgvURPaTEVxirB2UUHfjE,FALSE,,Mozilla/5.0 (Windows NT 10.0; Win64; x64; rv:91.0) Gecko/20100101 Firefox/91.0,1920,965,1920,1080,,,,,,,,7,23.528,0.38134715,-0.383937824,1,0,0,next_trial_button,0,37,37,0,1,beach,invisiblesun,noclouds,0,"750,500",
,,,,,,,gr,gr,gr,m,19,,2021-08-31_17h41.14.539,online_experiment,2021.1.4,Win32,60.0240096,IwAR2bDhqa9XVt1YqcCNbYtNqpKFpApQm7Kz2k-fXgvURPaTEVxirB2UUHfjE,FALSE,,Mozilla/5.0 (Windows NT 10.0; Win64; x64; rv:91.0) Gecko/20100101 Firefox/91.0,1920,965,1920,1080,,,,,,,,4,3.559,0.391709845,-0.397409326,1,0,0,next_trial_button,0,38,38,18,1,beach,visiblesun,noclouds,2,"666.6666666666666,500",
,,,,,,,gr,gr,gr,m,19,,2021-08-31_17h41.14.539,online_experiment,2021.1.4,Win32,60.0240096,IwAR2bDhqa9XVt1YqcCNbYtNqpKFpApQm7Kz2k-fXgvURPaTEVxirB2UUHfjE,FALSE,,Mozilla/5.0 (Windows NT 10.0; Win64; x64; rv:91.0) Gecko/20100101 Firefox/91.0,1920,965,1920,1080,,,,,,,,8,1.776,0.476683938,-0.415025907,1,0,0,next_trial_button,0,39,39,9,1,beach,invisiblesun,yesclouds,1,"750,500",
,,,,,,,gr,gr,gr,m,19,,2021-08-31_17h41.14.539,online_experiment,2021.1.4,Win32,60.0240096,IwAR2bDhqa9XVt1YqcCNbYtNqpKFpApQm7Kz2k-fXgvURPaTEVxirB2UUHfjE,FALSE,,Mozilla/5.0 (Windows NT 10.0; Win64; x64; rv:91.0) Gecko/20100101 Firefox/91.0,1920,965,1920,1080,,,,,,,,4,2.828,0.323316062,-0.42642487,1,0,0,next_trial_button,0,40,40,25,1,beach,invisiblesun,yesclouds,3,"750.4690431519699,500",
,,,,,,,gr,gr,gr,m,19,,2021-08-31_17h41.14.539,online_experiment,2021.1.4,Win32,60.0240096,IwAR2bDhqa9XVt1YqcCNbYtNqpKFpApQm7Kz2k-fXgvURPaTEVxirB2UUHfjE,FALSE,,Mozilla/5.0 (Windows NT 10.0; Win64; x64; rv:91.0) Gecko/20100101 Firefox/91.0,1920,965,1920,1080,,,,,,,,8,1.793,0.518134715,-0.416062176,1,0,0,next_trial_button,0,41,41,17,1,beach,invisiblesun,yesclouds,2,"684.8635235732011,500",
,,,,,,,gr,gr,gr,m,19,,2021-08-31_17h41.14.539,online_experiment,2021.1.4,Win32,60.0240096,IwAR2bDhqa9XVt1YqcCNbYtNqpKFpApQm7Kz2k-fXgvURPaTEVxirB2UUHfjE,FALSE,,Mozilla/5.0 (Windows NT 10.0; Win64; x64; rv:91.0) Gecko/20100101 Firefox/91.0,1920,965,1920,1080,,,,,,,,3,2.129,0.427979275,-0.431606218,1,0,0,next_trial_button,0,42,42,70,1,landscape,visiblesun,noclouds,8,"666.6666666666666,500",
,,,,,,,gr,gr,gr,m,19,,2021-08-31_17h41.14.539,online_experiment,2021.1.4,Win32,60.0240096,IwAR2bDhqa9XVt1YqcCNbYtNqpKFpApQm7Kz2k-fXgvURPaTEVxirB2UUHfjE,FALSE,,Mozilla/5.0 (Windows NT 10.0; Win64; x64; rv:91.0) Gecko/20100101 Firefox/91.0,1920,965,1920,1080,,,,,,,,2,2.677,0.512953368,-0.424352332,1,0,0,next_trial_button,0,43,43,10,1,beach,visiblesun,noclouds,1,"747.0261697065821,500",
,,,,,,,gr,gr,gr,m,19,,2021-08-31_17h41.14.539,online_experiment,2021.1.4,Win32,60.0240096,IwAR2bDhqa9XVt1YqcCNbYtNqpKFpApQm7Kz2k-fXgvURPaTEVxirB2UUHfjE,FALSE,,Mozilla/5.0 (Windows NT 10.0; Win64; x64; rv:91.0) Gecko/20100101 Firefox/91.0,1920,965,1920,1080,,,,,,,,6,103.53,0.365803109,-0.443005181,1,0,0,next_trial_button,0,44,44,27,1,beach,visiblesun,yesclouds,3,"752.8089887640449,500",
,,,,,,,gr,gr,gr,m,19,,2021-08-31_17h41.14.539,online_experiment,2021.1.4,Win32,60.0240096,IwAR2bDhqa9XVt1YqcCNbYtNqpKFpApQm7Kz2k-fXgvURPaTEVxirB2UUHfjE,FALSE,,Mozilla/5.0 (Windows NT 10.0; Win64; x64; rv:91.0) Gecko/20100101 Firefox/91.0,1920,965,1920,1080,,,,,,,,8,2.532,0.421761658,-0.400518135,1,0,0,next_trial_button,0,45,45,67,1,beach,visiblesun,yesclouds,8,"748.1481481481482,500",
,,,,,,,gr,gr,gr,m,19,,2021-08-31_17h41.14.539,online_experiment,2021.1.4,Win32,60.0240096,IwAR2bDhqa9XVt1YqcCNbYtNqpKFpApQm7Kz2k-fXgvURPaTEVxirB2UUHfjE,FALSE,,Mozilla/5.0 (Windows NT 10.0; Win64; x64; rv:91.0) Gecko/20100101 Firefox/91.0,1920,965,1920,1080,,,,,,,,4,65.56,0.365803109,-0.429533679,1,0,0,next_trial_button,0,46,46,75,1,beach,visiblesun,yesclouds,9,"1029.6010296010297,500",
,,,,,,,gr,gr,gr,m,19,,2021-08-31_17h41.14.539,online_experiment,2021.1.4,Win32,60.0240096,IwAR2bDhqa9XVt1YqcCNbYtNqpKFpApQm7Kz2k-fXgvURPaTEVxirB2UUHfjE,FALSE,,Mozilla/5.0 (Windows NT 10.0; Win64; x64; rv:91.0) Gecko/20100101 Firefox/91.0,1920,965,1920,1080,,,,,,,,6,2.809,0.375129534,-0.40984456,1,0,0,next_trial_button,0,47,47,55,1,landscape,visiblesun,yesclouds,6,"749.8819083608881,500",
,,,,,,,gr,gr,gr,m,19,,2021-08-31_17h41.14.539,online_experiment,2021.1.4,Win32,60.0240096,IwAR2bDhqa9XVt1YqcCNbYtNqpKFpApQm7Kz2k-fXgvURPaTEVxirB2UUHfjE,FALSE,,Mozilla/5.0 (Windows NT 10.0; Win64; x64; rv:91.0) Gecko/20100101 Firefox/91.0,1920,965,1920,1080,,,,,,,,3,1.596,0.405181347,-0.439896373,1,0,0,next_trial_button,0,48,48,78,1,landscape,visiblesun,noclouds,9,"666.6666666666666,500",
,,,,,,,gr,gr,gr,m,19,,2021-08-31_17h41.14.539,online_experiment,2021.1.4,Win32,60.0240096,IwAR2bDhqa9XVt1YqcCNbYtNqpKFpApQm7Kz2k-fXgvURPaTEVxirB2UUHfjE,FALSE,,Mozilla/5.0 (Windows NT 10.0; Win64; x64; rv:91.0) Gecko/20100101 Firefox/91.0,1920,965,1920,1080,,,,,,,,3,1.644,0.483937824,-0.421243523,1,0,0,next_trial_button,0,49,49,28,1,landscape,invisiblesun,noclouds,3,"888.8888888888888,500",
,,,,,,,gr,gr,gr,m,19,,2021-08-31_17h41.14.539,online_experiment,2021.1.4,Win32,60.0240096,IwAR2bDhqa9XVt1YqcCNbYtNqpKFpApQm7Kz2k-fXgvURPaTEVxirB2UUHfjE,FALSE,,Mozilla/5.0 (Windows NT 10.0; Win64; x64; rv:91.0) Gecko/20100101 Firefox/91.0,1920,965,1920,1080,,,,,,,,3,2.11,0.325388601,-0.407772021,1,0,0,next_trial_button,0,50,50,60,1,landscape,invisiblesun,noclouds,7,"666.7268134247564,500",
,,,,,,,gr,gr,gr,m,19,,2021-08-31_17h41.14.539,online_experiment,2021.1.4,Win32,60.0240096,IwAR2bDhqa9XVt1YqcCNbYtNqpKFpApQm7Kz2k-fXgvURPaTEVxirB2UUHfjE,FALSE,,Mozilla/5.0 (Windows NT 10.0; Win64; x64; rv:91.0) Gecko/20100101 Firefox/91.0,1920,965,1920,1080,,,,,,,,8,1.616,0.404145078,-0.404663212,1,0,0,next_trial_button,0,51,51,16,1,beach,invisiblesun,noclouds,2,"752.8089887640449,500",
,,,,,,,gr,gr,gr,m,19,,2021-08-31_17h41.14.539,online_experiment,2021.1.4,Win32,60.0240096,IwAR2bDhqa9XVt1YqcCNbYtNqpKFpApQm7Kz2k-fXgvURPaTEVxirB2UUHfjE,FALSE,,Mozilla/5.0 (Windows NT 10.0; Win64; x64; rv:91.0) Gecko/20100101 Firefox/91.0,1920,965,1920,1080,,,,,,,,4,2.165,0.456994819,-0.421243523,1,0,0,next_trial_button,0,52,52,35,1,beach,visiblesun,yesclouds,4,"750,500",
,,,,,,,gr,gr,gr,m,19,,2021-08-31_17h41.14.539,online_experiment,2021.1.4,Win32,60.0240096,IwAR2bDhqa9XVt1YqcCNbYtNqpKFpApQm7Kz2k-fXgvURPaTEVxirB2UUHfjE,FALSE,,Mozilla/5.0 (Windows NT 10.0; Win64; x64; rv:91.0) Gecko/20100101 Firefox/91.0,1920,965,1920,1080,,,,,,,,2,1.947,0.305699482,-0.411917098,1,0,0,next_trial_button,0,53,53,19,1,beach,visiblesun,yesclouds,2,"770.1393095093882,500",
,,,,,,,gr,gr,gr,m,19,,2021-08-31_17h41.14.539,online_experiment,2021.1.4,Win32,60.0240096,IwAR2bDhqa9XVt1YqcCNbYtNqpKFpApQm7Kz2k-fXgvURPaTEVxirB2UUHfjE,FALSE,,Mozilla/5.0 (Windows NT 10.0; Win64; x64; rv:91.0) Gecko/20100101 Firefox/91.0,1920,965,1920,1080,,,,,,,,2,2.225,0.366839378,-0.40880829,1,0,0,next_trial_button,0,54,54,39,1,landscape,visiblesun,yesclouds,4,"749.7656982193065,500",
,,,,,,,gr,gr,gr,m,19,,2021-08-31_17h41.14.539,online_experiment,2021.1.4,Win32,60.0240096,IwAR2bDhqa9XVt1YqcCNbYtNqpKFpApQm7Kz2k-fXgvURPaTEVxirB2UUHfjE,FALSE,,Mozilla/5.0 (Windows NT 10.0; Win64; x64; rv:91.0) Gecko/20100101 Firefox/91.0,1920,965,1920,1080,,,,,,,,3,1.56,0.494300518,-0.399481865,1,0,0,next_trial_button,0,55,55,13,1,landscape,invisiblesun,yesclouds,1,"783.1192660550458,500",
,,,,,,,gr,gr,gr,m,19,,2021-08-31_17h41.14.539,online_experiment,2021.1.4,Win32,60.0240096,IwAR2bDhqa9XVt1YqcCNbYtNqpKFpApQm7Kz2k-fXgvURPaTEVxirB2UUHfjE,FALSE,,Mozilla/5.0 (Windows NT 10.0; Win64; x64; rv:91.0) Gecko/20100101 Firefox/91.0,1920,965,1920,1080,,,,,,,,3,1.644,0.306735751,-0.421243523,1,0,0,next_trial_button,0,56,56,32,1,beach,invisiblesun,noclouds,4,"750,500",
,,,,,,,gr,gr,gr,m,19,,2021-08-31_17h41.14.539,online_experiment,2021.1.4,Win32,60.0240096,IwAR2bDhqa9XVt1YqcCNbYtNqpKFpApQm7Kz2k-fXgvURPaTEVxirB2UUHfjE,FALSE,,Mozilla/5.0 (Windows NT 10.0; Win64; x64; rv:91.0) Gecko/20100101 Firefox/91.0,1920,965,1920,1080,,,,,,,,1,1.629,0.295336788,-0.422279793,1,0,0,next_trial_button,0,57,57,2,1,beach,visiblesun,noclouds,0,"375,500",
,,,,,,,gr,gr,gr,m,19,,2021-08-31_17h41.14.539,online_experiment,2021.1.4,Win32,60.0240096,IwAR2bDhqa9XVt1YqcCNbYtNqpKFpApQm7Kz2k-fXgvURPaTEVxirB2UUHfjE,FALSE,,Mozilla/5.0 (Windows NT 10.0; Win64; x64; rv:91.0) Gecko/20100101 Firefox/91.0,1920,965,1920,1080,,,,,,,,3,1.644,0.295336788,-0.444041451,1,0,0,next_trial_button,0,58,58,11,1,beach,visiblesun,yesclouds,1,"989.8132427843803,500",
,,,,,,,gr,gr,gr,m,19,,2021-08-31_17h41.14.539,online_experiment,2021.1.4,Win32,60.0240096,IwAR2bDhqa9XVt1YqcCNbYtNqpKFpApQm7Kz2k-fXgvURPaTEVxirB2UUHfjE,FALSE,,Mozilla/5.0 (Windows NT 10.0; Win64; x64; rv:91.0) Gecko/20100101 Firefox/91.0,1920,965,1920,1080,,,,,,,,8,2.021,0.310880829,-0.396373057,1,0,0,next_trial_button,0,59,59,37,1,landscape,invisiblesun,yesclouds,4,"669.4214876033058,500",
,,,,,,,gr,gr,gr,m,19,,2021-08-31_17h41.14.539,online_experiment,2021.1.4,Win32,60.0240096,IwAR2bDhqa9XVt1YqcCNbYtNqpKFpApQm7Kz2k-fXgvURPaTEVxirB2UUHfjE,FALSE,,Mozilla/5.0 (Windows NT 10.0; Win64; x64; rv:91.0) Gecko/20100101 Firefox/91.0,1920,965,1920,1080,,,,,,,,8,1.53,0.387564767,-0.434715026,1,0,0,next_trial_button,0,60,60,1,1,beach,invisiblesun,yesclouds,0,"666.6666666666666,500",
,,,,,,,gr,gr,gr,m,19,,2021-08-31_17h41.14.539,online_experiment,2021.1.4,Win32,60.0240096,IwAR2bDhqa9XVt1YqcCNbYtNqpKFpApQm7Kz2k-fXgvURPaTEVxirB2UUHfjE,FALSE,,Mozilla/5.0 (Windows NT 10.0; Win64; x64; rv:91.0) Gecko/20100101 Firefox/91.0,1920,965,1920,1080,,,,,,,,1,1.427,0.49119171,-0.386010363,1,0,0,next_trial_button,0,61,61,64,1,beach,invisiblesun,noclouds,8,"1028.5714285714284,500",
,,,,,,,gr,gr,gr,m,19,,2021-08-31_17h41.14.539,online_experiment,2021.1.4,Win32,60.0240096,IwAR2bDhqa9XVt1YqcCNbYtNqpKFpApQm7Kz2k-fXgvURPaTEVxirB2UUHfjE,FALSE,,Mozilla/5.0 (Windows NT 10.0; Win64; x64; rv:91.0) Gecko/20100101 Firefox/91.0,1920,965,1920,1080,,,,,,,,8,1.812,0.431088083,-0.413989637,1,0,0,next_trial_button,0,62,62,45,1,landscape,invisiblesun,yesclouds,5,"749.6251874062968,500",
,,,,,,,gr,gr,gr,m,19,,2021-08-31_17h41.14.539,online_experiment,2021.1.4,Win32,60.0240096,IwAR2bDhqa9XVt1YqcCNbYtNqpKFpApQm7Kz2k-fXgvURPaTEVxirB2UUHfjE,FALSE,,Mozilla/5.0 (Windows NT 10.0; Win64; x64; rv:91.0) Gecko/20100101 Firefox/91.0,1920,965,1920,1080,,,,,,,,1,1.459,0.390673575,-0.419170984,1,0,0,next_trial_button,0,63,63,5,1,landscape,invisiblesun,yesclouds,0,"750.4690431519699,500",
,,,,,,,gr,gr,gr,m,19,,2021-08-31_17h41.14.539,online_experiment,2021.1.4,Win32,60.0240096,IwAR2bDhqa9XVt1YqcCNbYtNqpKFpApQm7Kz2k-fXgvURPaTEVxirB2UUHfjE,FALSE,,Mozilla/5.0 (Windows NT 10.0; Win64; x64; rv:91.0) Gecko/20100101 Firefox/91.0,1920,965,1920,1080,,,,,,,,3,1.594,0.447668394,-0.42746114,1,0,0,next_trial_button,0,64,64,79,1,landscape,visiblesun,yesclouds,9,"1028.5714285714284,500",
,,,,,,,gr,gr,gr,m,19,,2021-08-31_17h41.14.539,online_experiment,2021.1.4,Win32,60.0240096,IwAR2bDhqa9XVt1YqcCNbYtNqpKFpApQm7Kz2k-fXgvURPaTEVxirB2UUHfjE,FALSE,,Mozilla/5.0 (Windows NT 10.0; Win64; x64; rv:91.0) Gecko/20100101 Firefox/91.0,1920,965,1920,1080,,,,,,,,8,1.744,0.331606218,-0.412953368,1,0,0,next_trial_button,0,65,65,22,1,landscape,visiblesun,noclouds,2,"749.3333333333333,500",
,,,,,,,gr,gr,gr,m,19,,2021-08-31_17h41.14.539,online_experiment,2021.1.4,Win32,60.0240096,IwAR2bDhqa9XVt1YqcCNbYtNqpKFpApQm7Kz2k-fXgvURPaTEVxirB2UUHfjE,FALSE,,Mozilla/5.0 (Windows NT 10.0; Win64; x64; rv:91.0) Gecko/20100101 Firefox/91.0,1920,965,1920,1080,,,,,,,,8,1.412,0.330569948,-0.396373057,1,0,0,next_trial_button,0,66,66,77,1,landscape,invisiblesun,yesclouds,9,"888.8888888888888,500",
,,,,,,,gr,gr,gr,m,19,,2021-08-31_17h41.14.539,online_experiment,2021.1.4,Win32,60.0240096,IwAR2bDhqa9XVt1YqcCNbYtNqpKFpApQm7Kz2k-fXgvURPaTEVxirB2UUHfjE,FALSE,,Mozilla/5.0 (Windows NT 10.0; Win64; x64; rv:91.0) Gecko/20100101 Firefox/91.0,1920,965,1920,1080,,,,,,,,8,1.51,0.408290155,-0.407772021,1,0,0,next_trial_button,0,67,67,29,1,landscape,invisiblesun,yesclouds,3,"749.8660953401178,500",
,,,,,,,gr,gr,gr,m,19,,2021-08-31_17h41.14.539,online_experiment,2021.1.4,Win32,60.0240096,IwAR2bDhqa9XVt1YqcCNbYtNqpKFpApQm7Kz2k-fXgvURPaTEVxirB2UUHfjE,FALSE,,Mozilla/5.0 (Windows NT 10.0; Win64; x64; rv:91.0) Gecko/20100101 Firefox/91.0,1920,965,1920,1080,,,,,,,,1,1.492,0.408290155,-0.444041451,1,0,0,next_trial_button,0,68,68,68,1,landscape,invisiblesun,noclouds,8,"666.6666666666666,500",
,,,,,,,gr,gr,gr,m,19,,2021-08-31_17h41.14.539,online_experiment,2021.1.4,Win32,60.0240096,IwAR2bDhqa9XVt1YqcCNbYtNqpKFpApQm7Kz2k-fXgvURPaTEVxirB2UUHfjE,FALSE,,Mozilla/5.0 (Windows NT 10.0; Win64; x64; rv:91.0) Gecko/20100101 Firefox/91.0,1920,965,1920,1080,,,,,,,,3,1.696,0.456994819,-0.402590674,1,0,0,next_trial_button,0,69,69,48,1,beach,invisiblesun,noclouds,6,"1028.5714285714284,500",
,,,,,,,gr,gr,gr,m,19,,2021-08-31_17h41.14.539,online_experiment,2021.1.4,Win32,60.0240096,IwAR2bDhqa9XVt1YqcCNbYtNqpKFpApQm7Kz2k-fXgvURPaTEVxirB2UUHfjE,FALSE,,Mozilla/5.0 (Windows NT 10.0; Win64; x64; rv:91.0) Gecko/20100101 Firefox/91.0,1920,965,1920,1080,,,,,,,,1,2.111,0.366839378,-0.405699482,1,0,0,next_trial_button,0,70,70,6,1,landscape,visiblesun,noclouds,0,"1413.8005159071367,500",
,,,,,,,gr,gr,gr,m,19,,2021-08-31_17h41.14.539,online_experiment,2021.1.4,Win32,60.0240096,IwAR2bDhqa9XVt1YqcCNbYtNqpKFpApQm7Kz2k-fXgvURPaTEVxirB2UUHfjE,FALSE,,Mozilla/5.0 (Windows NT 10.0; Win64; x64; rv:91.0) Gecko/20100101 Firefox/91.0,1920,965,1920,1080,,,,,,,,8,1.694,0.493264249,-0.410880829,1,0,0,next_trial_button,0,71,71,4,1,landscape,invisiblesun,noclouds,0,"1276.9171185127807,500",
,,,,,,,gr,gr,gr,m,19,,2021-08-31_17h41.14.539,online_experiment,2021.1.4,Win32,60.0240096,IwAR2bDhqa9XVt1YqcCNbYtNqpKFpApQm7Kz2k-fXgvURPaTEVxirB2UUHfjE,FALSE,,Mozilla/5.0 (Windows NT 10.0; Win64; x64; rv:91.0) Gecko/20100101 Firefox/91.0,1920,965,1920,1080,,,,,,,,1,1.561,0.383419689,-0.388082902,1,0,0,next_trial_button,0,72,72,58,1,beach,visiblesun,noclouds,7,"1028.5714285714284,500",
,,,,,,,gr,gr,gr,m,19,,2021-08-31_17h41.14.539,online_experiment,2021.1.4,Win32,60.0240096,IwAR2bDhqa9XVt1YqcCNbYtNqpKFpApQm7Kz2k-fXgvURPaTEVxirB2UUHfjE,FALSE,,Mozilla/5.0 (Windows NT 10.0; Win64; x64; rv:91.0) Gecko/20100101 Firefox/91.0,1920,965,1920,1080,,,,,,,,6,3.112,0.402072539,-0.424352332,1,0,0,next_trial_button,0,73,73,57,1,beach,invisiblesun,yesclouds,7,"749.707488299532,500",
,,,,,,,gr,gr,gr,m,19,,2021-08-31_17h41.14.539,online_experiment,2021.1.4,Win32,60.0240096,IwAR2bDhqa9XVt1YqcCNbYtNqpKFpApQm7Kz2k-fXgvURPaTEVxirB2UUHfjE,FALSE,,Mozilla/5.0 (Windows NT 10.0; Win64; x64; rv:91.0) Gecko/20100101 Firefox/91.0,1920,965,1920,1080,,,,,,,,1,1.38,0.435233161,-0.431606218,1,0,0,next_trial_button,0,74,74,42,1,beach,visiblesun,noclouds,5,"834.4594594594595,500",
,,,,,,,gr,gr,gr,m,19,,2021-08-31_17h41.14.539,online_experiment,2021.1.4,Win32,60.0240096,IwAR2bDhqa9XVt1YqcCNbYtNqpKFpApQm7Kz2k-fXgvURPaTEVxirB2UUHfjE,FALSE,,Mozilla/5.0 (Windows NT 10.0; Win64; x64; rv:91.0) Gecko/20100101 Firefox/91.0,1920,965,1920,1080,,,,,,,,8,2.678,0.393782383,-0.40880829,1,0,0,next_trial_button,0,75,75,21,1,landscape,invisiblesun,yesclouds,2,"750,500",
,,,,,,,gr,gr,gr,m,19,,2021-08-31_17h41.14.539,online_experiment,2021.1.4,Win32,60.0240096,IwAR2bDhqa9XVt1YqcCNbYtNqpKFpApQm7Kz2k-fXgvURPaTEVxirB2UUHfjE,FALSE,,Mozilla/5.0 (Windows NT 10.0; Win64; x64; rv:91.0) Gecko/20100101 Firefox/91.0,1920,965,1920,1080,,,,,,,,6,4.496,0.312953368,-0.40984456,1,0,0,next_trial_button,0,76,76,26,1,beach,visiblesun,noclouds,3,"888.8888888888888,500",
,,,,,,,gr,gr,gr,m,19,,2021-08-31_17h41.14.539,online_experiment,2021.1.4,Win32,60.0240096,IwAR2bDhqa9XVt1YqcCNbYtNqpKFpApQm7Kz2k-fXgvURPaTEVxirB2UUHfjE,FALSE,,Mozilla/5.0 (Windows NT 10.0; Win64; x64; rv:91.0) Gecko/20100101 Firefox/91.0,1920,965,1920,1080,,,,,,,,1,1.609,0.413471503,-0.420207254,1,0,0,next_trial_button,0,77,77,50,1,beach,visiblesun,noclouds,6,"666.6666666666666,500",
,,,,,,,gr,gr,gr,m,19,,2021-08-31_17h41.14.539,online_experiment,2021.1.4,Win32,60.0240096,IwAR2bDhqa9XVt1YqcCNbYtNqpKFpApQm7Kz2k-fXgvURPaTEVxirB2UUHfjE,FALSE,,Mozilla/5.0 (Windows NT 10.0; Win64; x64; rv:91.0) Gecko/20100101 Firefox/91.0,1920,965,1920,1080,,,,,,,,3,2.046,0.377202073,-0.435751295,1,0,0,next_trial_button,0,78,78,8,1,beach,invisiblesun,noclouds,1,"1215.1898734177216,500",
,,,,,,,gr,gr,gr,m,19,,2021-08-31_17h41.14.539,online_experiment,2021.1.4,Win32,60.0240096,IwAR2bDhqa9XVt1YqcCNbYtNqpKFpApQm7Kz2k-fXgvURPaTEVxirB2UUHfjE,FALSE,,Mozilla/5.0 (Windows NT 10.0; Win64; x64; rv:91.0) Gecko/20100101 Firefox/91.0,1920,965,1920,1080,,,,,,,,1,1.83,0.368911917,-0.411917098,1,0,0,next_trial_button,0,79,79,65,1,beach,invisiblesun,yesclouds,8,"750,500",
,,,,,,,gr,gr,gr,m,19,,2021-08-31_17h41.14.539,online_experiment,2021.1.4,Win32,60.0240096,IwAR2bDhqa9XVt1YqcCNbYtNqpKFpApQm7Kz2k-fXgvURPaTEVxirB2UUHfjE,FALSE,,Mozilla/5.0 (Windows NT 10.0; Win64; x64; rv:91.0) Gecko/20100101 Firefox/91.0,1920,965,1920,1080,,,,,,,,,,,,,,,,,,,,,,,,,"750,500",493.196
