language_mouse.x,language_mouse.y,language_mouse.leftButton,language_mouse.midButton,language_mouse.rightButton,language_mouse.time,language_mouse.clicked_name,nationality,mother_tongue,homeland,gender,age,email,date,expName,psychopyVersion,OS,frameRate,fbclid,cancel_experiment,cancel_reasons,client_agent_information,windowWidth,windowHeight,xRes,yRes,start_exp_mouse.x,start_exp_mouse.y,start_exp_mouse.leftButton,start_exp_mouse.midButton,start_exp_mouse.rightButton,start_exp_mouse.time,start_exp_mouse.clicked_name,rating_slider.response,rating_slider.rt,next_trial_mouse.x,next_trial_mouse.y,next_trial_mouse.leftButton,next_trial_mouse.midButton,next_trial_mouse.rightButton,next_trial_mouse.clicked_name,trials.thisRepN,trials.thisTrialN,trials.thisN,trials.thisIndex,trials.ran,environment,sunVisibility,cloudVisibility,imageId,imgSize,globalClockTime
0.305555573,-0.256481549,1,0,0,2.2495,gr_flag,gr,gr,gr,m,23,,2021-09-01_14h24.02.334,online_experiment,2021.1.4,Win32,60.92731371,IwAR3ZnVseLOoRoV1xIlfDQjl1Nkx8REq0PDeZFTBDY8chvQapkzQsdpMDPYY,FALSE,,"Mozilla/5.0 (Windows NT 10.0; Win64; x64) AppleWebKit/537.36 (KHTML, like Gecko) Chrome/92.0.4515.159 Safari/537.36",1536,722,1536,864,,,,,,,,,,,,,,,,,,,,,,,,,,
,,,,,,,gr,gr,gr,m,23,,2021-09-01_14h24.02.334,online_experiment,2021.1.4,Win32,60.92731371,IwAR3ZnVseLOoRoV1xIlfDQjl1Nkx8REq0PDeZFTBDY8chvQapkzQsdpMDPYY,FALSE,,"Mozilla/5.0 (Windows NT 10.0; Win64; x64) AppleWebKit/537.36 (KHTML, like Gecko) Chrome/92.0.4515.159 Safari/537.36",1536,722,1536,864,0.02500007,-0.388888902,1,0,0,11.5206,cont_gr,5,9.988,0.440740761,-0.437037108,1,0,0,next_trial_button,0,0,0,75,1,beach,visiblesun,yesclouds,9,"1029.6010296010297,500",
,,,,,,,gr,gr,gr,m,23,,2021-09-01_14h24.02.334,online_experiment,2021.1.4,Win32,60.92731371,IwAR3ZnVseLOoRoV1xIlfDQjl1Nkx8REq0PDeZFTBDY8chvQapkzQsdpMDPYY,FALSE,,"Mozilla/5.0 (Windows NT 10.0; Win64; x64) AppleWebKit/537.36 (KHTML, like Gecko) Chrome/92.0.4515.159 Safari/537.36",1536,722,1536,864,,,,,,,,6,3.4834,0.404629649,-0.398148162,1,0,0,next_trial_button,0,1,1,18,1,beach,visiblesun,noclouds,2,"666.6666666666666,500",
,,,,,,,gr,gr,gr,m,23,,2021-09-01_14h24.02.334,online_experiment,2021.1.4,Win32,60.92731371,IwAR3ZnVseLOoRoV1xIlfDQjl1Nkx8REq0PDeZFTBDY8chvQapkzQsdpMDPYY,FALSE,,"Mozilla/5.0 (Windows NT 10.0; Win64; x64) AppleWebKit/537.36 (KHTML, like Gecko) Chrome/92.0.4515.159 Safari/537.36",1536,722,1536,864,,,,,,,,3,4.0603,0.444444464,-0.394444458,1,0,0,next_trial_button,0,2,2,48,1,beach,invisiblesun,noclouds,6,"1028.5714285714284,500",
,,,,,,,gr,gr,gr,m,23,,2021-09-01_14h24.02.334,online_experiment,2021.1.4,Win32,60.92731371,IwAR3ZnVseLOoRoV1xIlfDQjl1Nkx8REq0PDeZFTBDY8chvQapkzQsdpMDPYY,FALSE,,"Mozilla/5.0 (Windows NT 10.0; Win64; x64) AppleWebKit/537.36 (KHTML, like Gecko) Chrome/92.0.4515.159 Safari/537.36",1536,722,1536,864,,,,,,,,6,4.1668,0.369444576,-0.434259273,1,0,0,next_trial_button,0,3,3,35,1,beach,visiblesun,yesclouds,4,"750,500",
,,,,,,,gr,gr,gr,m,23,,2021-09-01_14h24.02.334,online_experiment,2021.1.4,Win32,60.92731371,IwAR3ZnVseLOoRoV1xIlfDQjl1Nkx8REq0PDeZFTBDY8chvQapkzQsdpMDPYY,FALSE,,"Mozilla/5.0 (Windows NT 10.0; Win64; x64) AppleWebKit/537.36 (KHTML, like Gecko) Chrome/92.0.4515.159 Safari/537.36",1536,722,1536,864,,,,,,,,2,2.3856,0.437037057,-0.431481495,1,0,0,next_trial_button,0,4,4,79,1,landscape,visiblesun,yesclouds,9,"1028.5714285714284,500",
,,,,,,,gr,gr,gr,m,23,,2021-09-01_14h24.02.334,online_experiment,2021.1.4,Win32,60.92731371,IwAR3ZnVseLOoRoV1xIlfDQjl1Nkx8REq0PDeZFTBDY8chvQapkzQsdpMDPYY,FALSE,,"Mozilla/5.0 (Windows NT 10.0; Win64; x64) AppleWebKit/537.36 (KHTML, like Gecko) Chrome/92.0.4515.159 Safari/537.36",1536,722,1536,864,,,,,,,,2,2.2542,0.435185205,-0.389814828,1,0,0,next_trial_button,0,5,5,44,1,landscape,invisiblesun,noclouds,5,"666.6666666666666,500",
,,,,,,,gr,gr,gr,m,23,,2021-09-01_14h24.02.334,online_experiment,2021.1.4,Win32,60.92731371,IwAR3ZnVseLOoRoV1xIlfDQjl1Nkx8REq0PDeZFTBDY8chvQapkzQsdpMDPYY,FALSE,,"Mozilla/5.0 (Windows NT 10.0; Win64; x64) AppleWebKit/537.36 (KHTML, like Gecko) Chrome/92.0.4515.159 Safari/537.36",1536,722,1536,864,,,,,,,,5,3.5721,0.423148168,-0.436111125,1,0,0,next_trial_button,0,6,6,40,1,beach,invisiblesun,noclouds,5,"1028.5714285714284,500",
,,,,,,,gr,gr,gr,m,23,,2021-09-01_14h24.02.334,online_experiment,2021.1.4,Win32,60.92731371,IwAR3ZnVseLOoRoV1xIlfDQjl1Nkx8REq0PDeZFTBDY8chvQapkzQsdpMDPYY,FALSE,,"Mozilla/5.0 (Windows NT 10.0; Win64; x64) AppleWebKit/537.36 (KHTML, like Gecko) Chrome/92.0.4515.159 Safari/537.36",1536,722,1536,864,,,,,,,,2,2.1954,0.362037056,-0.402777791,1,0,0,next_trial_button,0,7,7,66,1,beach,visiblesun,noclouds,8,"1028.5714285714284,500",
,,,,,,,gr,gr,gr,m,23,,2021-09-01_14h24.02.334,online_experiment,2021.1.4,Win32,60.92731371,IwAR3ZnVseLOoRoV1xIlfDQjl1Nkx8REq0PDeZFTBDY8chvQapkzQsdpMDPYY,FALSE,,"Mozilla/5.0 (Windows NT 10.0; Win64; x64) AppleWebKit/537.36 (KHTML, like Gecko) Chrome/92.0.4515.159 Safari/537.36",1536,722,1536,864,,,,,,,,7,2.9854,0.353703722,-0.384259272,1,0,0,next_trial_button,0,8,8,65,1,beach,invisiblesun,yesclouds,8,"750,500",
,,,,,,,gr,gr,gr,m,23,,2021-09-01_14h24.02.334,online_experiment,2021.1.4,Win32,60.92731371,IwAR3ZnVseLOoRoV1xIlfDQjl1Nkx8REq0PDeZFTBDY8chvQapkzQsdpMDPYY,FALSE,,"Mozilla/5.0 (Windows NT 10.0; Win64; x64) AppleWebKit/537.36 (KHTML, like Gecko) Chrome/92.0.4515.159 Safari/537.36",1536,722,1536,864,,,,,,,,6,2.7342,0.400000019,-0.394444458,1,0,0,next_trial_button,0,9,9,2,1,beach,visiblesun,noclouds,0,"375,500",
,,,,,,,gr,gr,gr,m,23,,2021-09-01_14h24.02.334,online_experiment,2021.1.4,Win32,60.92731371,IwAR3ZnVseLOoRoV1xIlfDQjl1Nkx8REq0PDeZFTBDY8chvQapkzQsdpMDPYY,FALSE,,"Mozilla/5.0 (Windows NT 10.0; Win64; x64) AppleWebKit/537.36 (KHTML, like Gecko) Chrome/92.0.4515.159 Safari/537.36",1536,722,1536,864,,,,,,,,2,2.2696,0.453703724,-0.417592606,1,0,0,next_trial_button,0,10,10,76,1,landscape,invisiblesun,noclouds,9,"1056.6037735849056,500",
,,,,,,,gr,gr,gr,m,23,,2021-09-01_14h24.02.334,online_experiment,2021.1.4,Win32,60.92731371,IwAR3ZnVseLOoRoV1xIlfDQjl1Nkx8REq0PDeZFTBDY8chvQapkzQsdpMDPYY,FALSE,,"Mozilla/5.0 (Windows NT 10.0; Win64; x64) AppleWebKit/537.36 (KHTML, like Gecko) Chrome/92.0.4515.159 Safari/537.36",1536,722,1536,864,,,,,,,,5,10.9303,0.350926057,-0.39537044,1,0,0,next_trial_button,0,11,11,59,1,beach,visiblesun,yesclouds,7,"888.9689978370584,500",
,,,,,,,gr,gr,gr,m,23,,2021-09-01_14h24.02.334,online_experiment,2021.1.4,Win32,60.92731371,IwAR3ZnVseLOoRoV1xIlfDQjl1Nkx8REq0PDeZFTBDY8chvQapkzQsdpMDPYY,FALSE,,"Mozilla/5.0 (Windows NT 10.0; Win64; x64) AppleWebKit/537.36 (KHTML, like Gecko) Chrome/92.0.4515.159 Safari/537.36",1536,722,1536,864,,,,,,,,5,2.0193,0.437962983,-0.444444459,1,0,0,next_trial_button,0,12,12,58,1,beach,visiblesun,noclouds,7,"1028.5714285714284,500",
,,,,,,,gr,gr,gr,m,23,,2021-09-01_14h24.02.334,online_experiment,2021.1.4,Win32,60.92731371,IwAR3ZnVseLOoRoV1xIlfDQjl1Nkx8REq0PDeZFTBDY8chvQapkzQsdpMDPYY,FALSE,,"Mozilla/5.0 (Windows NT 10.0; Win64; x64) AppleWebKit/537.36 (KHTML, like Gecko) Chrome/92.0.4515.159 Safari/537.36",1536,722,1536,864,,,,,,,,3,2.604,0.398148167,-0.431481495,1,0,0,next_trial_button,0,13,13,55,1,landscape,visiblesun,yesclouds,6,"749.8819083608881,500",
,,,,,,,gr,gr,gr,m,23,,2021-09-01_14h24.02.334,online_experiment,2021.1.4,Win32,60.92731371,IwAR3ZnVseLOoRoV1xIlfDQjl1Nkx8REq0PDeZFTBDY8chvQapkzQsdpMDPYY,FALSE,,"Mozilla/5.0 (Windows NT 10.0; Win64; x64) AppleWebKit/537.36 (KHTML, like Gecko) Chrome/92.0.4515.159 Safari/537.36",1536,722,1536,864,,,,,,,,6,2.5893,0.408333353,-0.413888959,1,0,0,next_trial_button,0,14,14,13,1,landscape,invisiblesun,yesclouds,1,"783.1192660550458,500",
,,,,,,,gr,gr,gr,m,23,,2021-09-01_14h24.02.334,online_experiment,2021.1.4,Win32,60.92731371,IwAR3ZnVseLOoRoV1xIlfDQjl1Nkx8REq0PDeZFTBDY8chvQapkzQsdpMDPYY,FALSE,,"Mozilla/5.0 (Windows NT 10.0; Win64; x64) AppleWebKit/537.36 (KHTML, like Gecko) Chrome/92.0.4515.159 Safari/537.36",1536,722,1536,864,,,,,,,,3,2.7625,0.377777797,-0.429629643,1,0,0,next_trial_button,0,15,15,31,1,landscape,visiblesun,yesclouds,3,"638.0622837370242,500",
,,,,,,,gr,gr,gr,m,23,,2021-09-01_14h24.02.334,online_experiment,2021.1.4,Win32,60.92731371,IwAR3ZnVseLOoRoV1xIlfDQjl1Nkx8REq0PDeZFTBDY8chvQapkzQsdpMDPYY,FALSE,,"Mozilla/5.0 (Windows NT 10.0; Win64; x64) AppleWebKit/537.36 (KHTML, like Gecko) Chrome/92.0.4515.159 Safari/537.36",1536,722,1536,864,,,,,,,,5,9.2997,0.379629649,-0.419444458,1,0,0,next_trial_button,0,16,16,12,1,landscape,invisiblesun,noclouds,1,"666.6666666666666,500",
,,,,,,,gr,gr,gr,m,23,,2021-09-01_14h24.02.334,online_experiment,2021.1.4,Win32,60.92731371,IwAR3ZnVseLOoRoV1xIlfDQjl1Nkx8REq0PDeZFTBDY8chvQapkzQsdpMDPYY,FALSE,,"Mozilla/5.0 (Windows NT 10.0; Win64; x64) AppleWebKit/537.36 (KHTML, like Gecko) Chrome/92.0.4515.159 Safari/537.36",1536,722,1536,864,,,,,,,,5,6.949,0.377777797,-0.443518533,1,0,0,next_trial_button,0,17,17,73,1,beach,invisiblesun,yesclouds,9,"1028.5714285714284,500",
,,,,,,,gr,gr,gr,m,23,,2021-09-01_14h24.02.334,online_experiment,2021.1.4,Win32,60.92731371,IwAR3ZnVseLOoRoV1xIlfDQjl1Nkx8REq0PDeZFTBDY8chvQapkzQsdpMDPYY,FALSE,,"Mozilla/5.0 (Windows NT 10.0; Win64; x64) AppleWebKit/537.36 (KHTML, like Gecko) Chrome/92.0.4515.159 Safari/537.36",1536,722,1536,864,,,,,,,,6,6.3665,0.339814833,-0.409259329,1,0,0,next_trial_button,0,18,18,56,1,beach,invisiblesun,noclouds,7,"1028.5714285714284,500",
,,,,,,,gr,gr,gr,m,23,,2021-09-01_14h24.02.334,online_experiment,2021.1.4,Win32,60.92731371,IwAR3ZnVseLOoRoV1xIlfDQjl1Nkx8REq0PDeZFTBDY8chvQapkzQsdpMDPYY,FALSE,,"Mozilla/5.0 (Windows NT 10.0; Win64; x64) AppleWebKit/537.36 (KHTML, like Gecko) Chrome/92.0.4515.159 Safari/537.36",1536,722,1536,864,,,,,,,,7,2.6348,0.362037056,-0.41666668,1,0,0,next_trial_button,0,19,19,11,1,beach,visiblesun,yesclouds,1,"989.8132427843803,500",
,,,,,,,gr,gr,gr,m,23,,2021-09-01_14h24.02.334,online_experiment,2021.1.4,Win32,60.92731371,IwAR3ZnVseLOoRoV1xIlfDQjl1Nkx8REq0PDeZFTBDY8chvQapkzQsdpMDPYY,FALSE,,"Mozilla/5.0 (Windows NT 10.0; Win64; x64) AppleWebKit/537.36 (KHTML, like Gecko) Chrome/92.0.4515.159 Safari/537.36",1536,722,1536,864,,,,,,,,9,5.849,0.354629648,-0.413888959,1,0,0,next_trial_button,0,20,20,9,1,beach,invisiblesun,yesclouds,1,"750,500",
,,,,,,,gr,gr,gr,m,23,,2021-09-01_14h24.02.334,online_experiment,2021.1.4,Win32,60.92731371,IwAR3ZnVseLOoRoV1xIlfDQjl1Nkx8REq0PDeZFTBDY8chvQapkzQsdpMDPYY,FALSE,,"Mozilla/5.0 (Windows NT 10.0; Win64; x64) AppleWebKit/537.36 (KHTML, like Gecko) Chrome/92.0.4515.159 Safari/537.36",1536,722,1536,864,,,,,,,,7,2.3536,0.362037056,-0.412962977,1,0,0,next_trial_button,0,21,21,42,1,beach,visiblesun,noclouds,5,"834.4594594594595,500",
,,,,,,,gr,gr,gr,m,23,,2021-09-01_14h24.02.334,online_experiment,2021.1.4,Win32,60.92731371,IwAR3ZnVseLOoRoV1xIlfDQjl1Nkx8REq0PDeZFTBDY8chvQapkzQsdpMDPYY,FALSE,,"Mozilla/5.0 (Windows NT 10.0; Win64; x64) AppleWebKit/537.36 (KHTML, like Gecko) Chrome/92.0.4515.159 Safari/537.36",1536,722,1536,864,,,,,,,,6,1.889,0.431481501,-0.420370384,1,0,0,next_trial_button,0,22,22,5,1,landscape,invisiblesun,yesclouds,0,"750.4690431519699,500",
,,,,,,,gr,gr,gr,m,23,,2021-09-01_14h24.02.334,online_experiment,2021.1.4,Win32,60.92731371,IwAR3ZnVseLOoRoV1xIlfDQjl1Nkx8REq0PDeZFTBDY8chvQapkzQsdpMDPYY,FALSE,,"Mozilla/5.0 (Windows NT 10.0; Win64; x64) AppleWebKit/537.36 (KHTML, like Gecko) Chrome/92.0.4515.159 Safari/537.36",1536,722,1536,864,,,,,,,,6,3.2715,0.431481501,-0.435185199,1,0,0,next_trial_button,0,23,23,26,1,beach,visiblesun,noclouds,3,"888.8888888888888,500",
,,,,,,,gr,gr,gr,m,23,,2021-09-01_14h24.02.334,online_experiment,2021.1.4,Win32,60.92731371,IwAR3ZnVseLOoRoV1xIlfDQjl1Nkx8REq0PDeZFTBDY8chvQapkzQsdpMDPYY,FALSE,,"Mozilla/5.0 (Windows NT 10.0; Win64; x64) AppleWebKit/537.36 (KHTML, like Gecko) Chrome/92.0.4515.159 Safari/537.36",1536,722,1536,864,,,,,,,,8,4.7071,0.341666798,-0.406481495,1,0,0,next_trial_button,0,24,24,49,1,beach,invisiblesun,yesclouds,6,"858.4474885844749,500",
,,,,,,,gr,gr,gr,m,23,,2021-09-01_14h24.02.334,online_experiment,2021.1.4,Win32,60.92731371,IwAR3ZnVseLOoRoV1xIlfDQjl1Nkx8REq0PDeZFTBDY8chvQapkzQsdpMDPYY,FALSE,,"Mozilla/5.0 (Windows NT 10.0; Win64; x64) AppleWebKit/537.36 (KHTML, like Gecko) Chrome/92.0.4515.159 Safari/537.36",1536,722,1536,864,,,,,,,,6,2.2521,0.355555687,-0.419444458,1,0,0,next_trial_button,0,25,25,64,1,beach,invisiblesun,noclouds,8,"1028.5714285714284,500",
,,,,,,,gr,gr,gr,m,23,,2021-09-01_14h24.02.334,online_experiment,2021.1.4,Win32,60.92731371,IwAR3ZnVseLOoRoV1xIlfDQjl1Nkx8REq0PDeZFTBDY8chvQapkzQsdpMDPYY,FALSE,,"Mozilla/5.0 (Windows NT 10.0; Win64; x64) AppleWebKit/537.36 (KHTML, like Gecko) Chrome/92.0.4515.159 Safari/537.36",1536,722,1536,864,,,,,,,,6,2.6701,0.355555687,-0.400925939,1,0,0,next_trial_button,0,26,26,62,1,landscape,visiblesun,noclouds,7,"417.42389822807814,500",
,,,,,,,gr,gr,gr,m,23,,2021-09-01_14h24.02.334,online_experiment,2021.1.4,Win32,60.92731371,IwAR3ZnVseLOoRoV1xIlfDQjl1Nkx8REq0PDeZFTBDY8chvQapkzQsdpMDPYY,FALSE,,"Mozilla/5.0 (Windows NT 10.0; Win64; x64) AppleWebKit/537.36 (KHTML, like Gecko) Chrome/92.0.4515.159 Safari/537.36",1536,722,1536,864,,,,,,,,2,3.0523,0.350926057,-0.422222236,1,0,0,next_trial_button,0,27,27,60,1,landscape,invisiblesun,noclouds,7,"666.7268134247564,500",
,,,,,,,gr,gr,gr,m,23,,2021-09-01_14h24.02.334,online_experiment,2021.1.4,Win32,60.92731371,IwAR3ZnVseLOoRoV1xIlfDQjl1Nkx8REq0PDeZFTBDY8chvQapkzQsdpMDPYY,FALSE,,"Mozilla/5.0 (Windows NT 10.0; Win64; x64) AppleWebKit/537.36 (KHTML, like Gecko) Chrome/92.0.4515.159 Safari/537.36",1536,722,1536,864,,,,,,,,3,2.9518,0.385185204,-0.405555569,1,0,0,next_trial_button,0,28,28,52,1,landscape,invisiblesun,noclouds,6,"666.6666666666666,500",
,,,,,,,gr,gr,gr,m,23,,2021-09-01_14h24.02.334,online_experiment,2021.1.4,Win32,60.92731371,IwAR3ZnVseLOoRoV1xIlfDQjl1Nkx8REq0PDeZFTBDY8chvQapkzQsdpMDPYY,FALSE,,"Mozilla/5.0 (Windows NT 10.0; Win64; x64) AppleWebKit/537.36 (KHTML, like Gecko) Chrome/92.0.4515.159 Safari/537.36",1536,722,1536,864,,,,,,,,5,2.7504,0.3814815,-0.392592606,1,0,0,next_trial_button,0,29,29,67,1,beach,visiblesun,yesclouds,8,"748.1481481481482,500",
,,,,,,,gr,gr,gr,m,23,,2021-09-01_14h24.02.334,online_experiment,2021.1.4,Win32,60.92731371,IwAR3ZnVseLOoRoV1xIlfDQjl1Nkx8REq0PDeZFTBDY8chvQapkzQsdpMDPYY,FALSE,,"Mozilla/5.0 (Windows NT 10.0; Win64; x64) AppleWebKit/537.36 (KHTML, like Gecko) Chrome/92.0.4515.159 Safari/537.36",1536,722,1536,864,,,,,,,,2,3.1146,0.394444464,-0.412037051,1,0,0,next_trial_button,0,30,30,4,1,landscape,invisiblesun,noclouds,0,"1276.9171185127807,500",
,,,,,,,gr,gr,gr,m,23,,2021-09-01_14h24.02.334,online_experiment,2021.1.4,Win32,60.92731371,IwAR3ZnVseLOoRoV1xIlfDQjl1Nkx8REq0PDeZFTBDY8chvQapkzQsdpMDPYY,FALSE,,"Mozilla/5.0 (Windows NT 10.0; Win64; x64) AppleWebKit/537.36 (KHTML, like Gecko) Chrome/92.0.4515.159 Safari/537.36",1536,722,1536,864,,,,,,,,7,4.0156,0.418518538,-0.412962977,1,0,0,next_trial_button,0,31,31,41,1,beach,invisiblesun,yesclouds,5,"1248.4394506866417,500",
,,,,,,,gr,gr,gr,m,23,,2021-09-01_14h24.02.334,online_experiment,2021.1.4,Win32,60.92731371,IwAR3ZnVseLOoRoV1xIlfDQjl1Nkx8REq0PDeZFTBDY8chvQapkzQsdpMDPYY,FALSE,,"Mozilla/5.0 (Windows NT 10.0; Win64; x64) AppleWebKit/537.36 (KHTML, like Gecko) Chrome/92.0.4515.159 Safari/537.36",1536,722,1536,864,,,,,,,,6,2.3364,0.312037055,-0.399074087,1,0,0,next_trial_button,0,32,32,21,1,landscape,invisiblesun,yesclouds,2,"750,500",
,,,,,,,gr,gr,gr,m,23,,2021-09-01_14h24.02.334,online_experiment,2021.1.4,Win32,60.92731371,IwAR3ZnVseLOoRoV1xIlfDQjl1Nkx8REq0PDeZFTBDY8chvQapkzQsdpMDPYY,FALSE,,"Mozilla/5.0 (Windows NT 10.0; Win64; x64) AppleWebKit/537.36 (KHTML, like Gecko) Chrome/92.0.4515.159 Safari/537.36",1536,722,1536,864,,,,,,,,6,2.2851,0.373148167,-0.441666737,1,0,0,next_trial_button,0,33,33,63,1,landscape,visiblesun,yesclouds,7,"331.94444444444446,500",
,,,,,,,gr,gr,gr,m,23,,2021-09-01_14h24.02.334,online_experiment,2021.1.4,Win32,60.92731371,IwAR3ZnVseLOoRoV1xIlfDQjl1Nkx8REq0PDeZFTBDY8chvQapkzQsdpMDPYY,FALSE,,"Mozilla/5.0 (Windows NT 10.0; Win64; x64) AppleWebKit/537.36 (KHTML, like Gecko) Chrome/92.0.4515.159 Safari/537.36",1536,722,1536,864,,,,,,,,7,2.0039,0.376851871,-0.424074088,1,0,0,next_trial_button,0,34,34,50,1,beach,visiblesun,noclouds,6,"666.6666666666666,500",
,,,,,,,gr,gr,gr,m,23,,2021-09-01_14h24.02.334,online_experiment,2021.1.4,Win32,60.92731371,IwAR3ZnVseLOoRoV1xIlfDQjl1Nkx8REq0PDeZFTBDY8chvQapkzQsdpMDPYY,FALSE,,"Mozilla/5.0 (Windows NT 10.0; Win64; x64) AppleWebKit/537.36 (KHTML, like Gecko) Chrome/92.0.4515.159 Safari/537.36",1536,722,1536,864,,,,,,,,6,3.1783,0.373148167,-0.440740755,1,0,0,next_trial_button,0,35,35,8,1,beach,invisiblesun,noclouds,1,"1215.1898734177216,500",
,,,,,,,gr,gr,gr,m,23,,2021-09-01_14h24.02.334,online_experiment,2021.1.4,Win32,60.92731371,IwAR3ZnVseLOoRoV1xIlfDQjl1Nkx8REq0PDeZFTBDY8chvQapkzQsdpMDPYY,FALSE,,"Mozilla/5.0 (Windows NT 10.0; Win64; x64) AppleWebKit/537.36 (KHTML, like Gecko) Chrome/92.0.4515.159 Safari/537.36",1536,722,1536,864,,,,,,,,7,2.1002,0.362037056,-0.430555569,1,0,0,next_trial_button,0,36,36,38,1,landscape,visiblesun,noclouds,4,"733.3333333333333,500",
,,,,,,,gr,gr,gr,m,23,,2021-09-01_14h24.02.334,online_experiment,2021.1.4,Win32,60.92731371,IwAR3ZnVseLOoRoV1xIlfDQjl1Nkx8REq0PDeZFTBDY8chvQapkzQsdpMDPYY,FALSE,,"Mozilla/5.0 (Windows NT 10.0; Win64; x64) AppleWebKit/537.36 (KHTML, like Gecko) Chrome/92.0.4515.159 Safari/537.36",1536,722,1536,864,,,,,,,,6,5.0177,0.417592612,-0.415740754,1,0,0,next_trial_button,0,37,37,3,1,beach,visiblesun,yesclouds,0,"1152.5122276567363,500",
,,,,,,,gr,gr,gr,m,23,,2021-09-01_14h24.02.334,online_experiment,2021.1.4,Win32,60.92731371,IwAR3ZnVseLOoRoV1xIlfDQjl1Nkx8REq0PDeZFTBDY8chvQapkzQsdpMDPYY,FALSE,,"Mozilla/5.0 (Windows NT 10.0; Win64; x64) AppleWebKit/537.36 (KHTML, like Gecko) Chrome/92.0.4515.159 Safari/537.36",1536,722,1536,864,,,,,,,,7,1.9106,0.371296315,-0.423148218,1,0,0,next_trial_button,0,38,38,14,1,landscape,visiblesun,noclouds,1,"745.9919839679359,500",
,,,,,,,gr,gr,gr,m,23,,2021-09-01_14h24.02.334,online_experiment,2021.1.4,Win32,60.92731371,IwAR3ZnVseLOoRoV1xIlfDQjl1Nkx8REq0PDeZFTBDY8chvQapkzQsdpMDPYY,FALSE,,"Mozilla/5.0 (Windows NT 10.0; Win64; x64) AppleWebKit/537.36 (KHTML, like Gecko) Chrome/92.0.4515.159 Safari/537.36",1536,722,1536,864,,,,,,,,7,2.7608,0.400925945,-0.42592594,1,0,0,next_trial_button,0,39,39,24,1,beach,invisiblesun,noclouds,3,"750.089190153407,500",
,,,,,,,gr,gr,gr,m,23,,2021-09-01_14h24.02.334,online_experiment,2021.1.4,Win32,60.92731371,IwAR3ZnVseLOoRoV1xIlfDQjl1Nkx8REq0PDeZFTBDY8chvQapkzQsdpMDPYY,FALSE,,"Mozilla/5.0 (Windows NT 10.0; Win64; x64) AppleWebKit/537.36 (KHTML, like Gecko) Chrome/92.0.4515.159 Safari/537.36",1536,722,1536,864,,,,,,,,5,3.1884,0.412037056,-0.425000014,1,0,0,next_trial_button,0,40,40,20,1,landscape,invisiblesun,noclouds,2,"755.192878338279,500",
,,,,,,,gr,gr,gr,m,23,,2021-09-01_14h24.02.334,online_experiment,2021.1.4,Win32,60.92731371,IwAR3ZnVseLOoRoV1xIlfDQjl1Nkx8REq0PDeZFTBDY8chvQapkzQsdpMDPYY,FALSE,,"Mozilla/5.0 (Windows NT 10.0; Win64; x64) AppleWebKit/537.36 (KHTML, like Gecko) Chrome/92.0.4515.159 Safari/537.36",1536,722,1536,864,,,,,,,,4,3.7904,0.368518537,-0.442592607,1,0,0,next_trial_button,0,41,41,16,1,beach,invisiblesun,noclouds,2,"752.8089887640449,500",
,,,,,,,gr,gr,gr,m,23,,2021-09-01_14h24.02.334,online_experiment,2021.1.4,Win32,60.92731371,IwAR3ZnVseLOoRoV1xIlfDQjl1Nkx8REq0PDeZFTBDY8chvQapkzQsdpMDPYY,FALSE,,"Mozilla/5.0 (Windows NT 10.0; Win64; x64) AppleWebKit/537.36 (KHTML, like Gecko) Chrome/92.0.4515.159 Safari/537.36",1536,722,1536,864,,,,,,,,7,2.9869,0.352777796,-0.405555569,1,0,0,next_trial_button,0,42,42,53,1,landscape,invisiblesun,yesclouds,6,"750.0695023630803,500",
,,,,,,,gr,gr,gr,m,23,,2021-09-01_14h24.02.334,online_experiment,2021.1.4,Win32,60.92731371,IwAR3ZnVseLOoRoV1xIlfDQjl1Nkx8REq0PDeZFTBDY8chvQapkzQsdpMDPYY,FALSE,,"Mozilla/5.0 (Windows NT 10.0; Win64; x64) AppleWebKit/537.36 (KHTML, like Gecko) Chrome/92.0.4515.159 Safari/537.36",1536,722,1536,864,,,,,,,,3,2.9679,0.38611113,-0.405555569,1,0,0,next_trial_button,0,43,43,23,1,landscape,visiblesun,yesclouds,2,"767.97829036635,500",
,,,,,,,gr,gr,gr,m,23,,2021-09-01_14h24.02.334,online_experiment,2021.1.4,Win32,60.92731371,IwAR3ZnVseLOoRoV1xIlfDQjl1Nkx8REq0PDeZFTBDY8chvQapkzQsdpMDPYY,FALSE,,"Mozilla/5.0 (Windows NT 10.0; Win64; x64) AppleWebKit/537.36 (KHTML, like Gecko) Chrome/92.0.4515.159 Safari/537.36",1536,722,1536,864,,,,,,,,2,2.553,0.384259278,-0.422222236,1,0,0,next_trial_button,0,44,44,70,1,landscape,visiblesun,noclouds,8,"666.6666666666666,500",
,,,,,,,gr,gr,gr,m,23,,2021-09-01_14h24.02.334,online_experiment,2021.1.4,Win32,60.92731371,IwAR3ZnVseLOoRoV1xIlfDQjl1Nkx8REq0PDeZFTBDY8chvQapkzQsdpMDPYY,FALSE,,"Mozilla/5.0 (Windows NT 10.0; Win64; x64) AppleWebKit/537.36 (KHTML, like Gecko) Chrome/92.0.4515.159 Safari/537.36",1536,722,1536,864,,,,,,,,4,2.3698,0.45462965,-0.42592594,1,0,0,next_trial_button,0,45,45,19,1,beach,visiblesun,yesclouds,2,"770.1393095093882,500",
,,,,,,,gr,gr,gr,m,23,,2021-09-01_14h24.02.334,online_experiment,2021.1.4,Win32,60.92731371,IwAR3ZnVseLOoRoV1xIlfDQjl1Nkx8REq0PDeZFTBDY8chvQapkzQsdpMDPYY,FALSE,,"Mozilla/5.0 (Windows NT 10.0; Win64; x64) AppleWebKit/537.36 (KHTML, like Gecko) Chrome/92.0.4515.159 Safari/537.36",1536,722,1536,864,,,,,,,,8,3.5833,0.363888908,-0.392592606,1,0,0,next_trial_button,0,46,46,1,1,beach,invisiblesun,yesclouds,0,"666.6666666666666,500",
,,,,,,,gr,gr,gr,m,23,,2021-09-01_14h24.02.334,online_experiment,2021.1.4,Win32,60.92731371,IwAR3ZnVseLOoRoV1xIlfDQjl1Nkx8REq0PDeZFTBDY8chvQapkzQsdpMDPYY,FALSE,,"Mozilla/5.0 (Windows NT 10.0; Win64; x64) AppleWebKit/537.36 (KHTML, like Gecko) Chrome/92.0.4515.159 Safari/537.36",1536,722,1536,864,,,,,,,,9,5.6105,0.428703723,-0.423148218,1,0,0,next_trial_button,0,47,47,29,1,landscape,invisiblesun,yesclouds,3,"749.8660953401178,500",
,,,,,,,gr,gr,gr,m,23,,2021-09-01_14h24.02.334,online_experiment,2021.1.4,Win32,60.92731371,IwAR3ZnVseLOoRoV1xIlfDQjl1Nkx8REq0PDeZFTBDY8chvQapkzQsdpMDPYY,FALSE,,"Mozilla/5.0 (Windows NT 10.0; Win64; x64) AppleWebKit/537.36 (KHTML, like Gecko) Chrome/92.0.4515.159 Safari/537.36",1536,722,1536,864,,,,,,,,2,3.0679,0.384259278,-0.406481495,1,0,0,next_trial_button,0,48,48,77,1,landscape,invisiblesun,yesclouds,9,"888.8888888888888,500",
,,,,,,,gr,gr,gr,m,23,,2021-09-01_14h24.02.334,online_experiment,2021.1.4,Win32,60.92731371,IwAR3ZnVseLOoRoV1xIlfDQjl1Nkx8REq0PDeZFTBDY8chvQapkzQsdpMDPYY,FALSE,,"Mozilla/5.0 (Windows NT 10.0; Win64; x64) AppleWebKit/537.36 (KHTML, like Gecko) Chrome/92.0.4515.159 Safari/537.36",1536,722,1536,864,,,,,,,,2,8.7293,0.389814834,-0.39166668,1,0,0,next_trial_button,0,49,49,54,1,landscape,visiblesun,noclouds,6,"695.0043821209465,500",
,,,,,,,gr,gr,gr,m,23,,2021-09-01_14h24.02.334,online_experiment,2021.1.4,Win32,60.92731371,IwAR3ZnVseLOoRoV1xIlfDQjl1Nkx8REq0PDeZFTBDY8chvQapkzQsdpMDPYY,FALSE,,"Mozilla/5.0 (Windows NT 10.0; Win64; x64) AppleWebKit/537.36 (KHTML, like Gecko) Chrome/92.0.4515.159 Safari/537.36",1536,722,1536,864,,,,,,,,7,4.6673,0.439814835,-0.423148218,1,0,0,next_trial_button,0,50,50,37,1,landscape,invisiblesun,yesclouds,4,"669.4214876033058,500",
,,,,,,,gr,gr,gr,m,23,,2021-09-01_14h24.02.334,online_experiment,2021.1.4,Win32,60.92731371,IwAR3ZnVseLOoRoV1xIlfDQjl1Nkx8REq0PDeZFTBDY8chvQapkzQsdpMDPYY,FALSE,,"Mozilla/5.0 (Windows NT 10.0; Win64; x64) AppleWebKit/537.36 (KHTML, like Gecko) Chrome/92.0.4515.159 Safari/537.36",1536,722,1536,864,,,,,,,,7,2.4413,0.312037055,-0.444444459,1,0,0,next_trial_button,0,51,51,27,1,beach,visiblesun,yesclouds,3,"752.8089887640449,500",
,,,,,,,gr,gr,gr,m,23,,2021-09-01_14h24.02.334,online_experiment,2021.1.4,Win32,60.92731371,IwAR3ZnVseLOoRoV1xIlfDQjl1Nkx8REq0PDeZFTBDY8chvQapkzQsdpMDPYY,FALSE,,"Mozilla/5.0 (Windows NT 10.0; Win64; x64) AppleWebKit/537.36 (KHTML, like Gecko) Chrome/92.0.4515.159 Safari/537.36",1536,722,1536,864,,,,,,,,6,3.6355,0.323148279,-0.425000014,1,0,0,next_trial_button,0,52,52,69,1,landscape,invisiblesun,yesclouds,8,"750,500",
,,,,,,,gr,gr,gr,m,23,,2021-09-01_14h24.02.334,online_experiment,2021.1.4,Win32,60.92731371,IwAR3ZnVseLOoRoV1xIlfDQjl1Nkx8REq0PDeZFTBDY8chvQapkzQsdpMDPYY,FALSE,,"Mozilla/5.0 (Windows NT 10.0; Win64; x64) AppleWebKit/537.36 (KHTML, like Gecko) Chrome/92.0.4515.159 Safari/537.36",1536,722,1536,864,,,,,,,,6,3.5733,0.355555687,-0.422222236,1,0,0,next_trial_button,0,53,53,25,1,beach,invisiblesun,yesclouds,3,"750.4690431519699,500",
,,,,,,,gr,gr,gr,m,23,,2021-09-01_14h24.02.334,online_experiment,2021.1.4,Win32,60.92731371,IwAR3ZnVseLOoRoV1xIlfDQjl1Nkx8REq0PDeZFTBDY8chvQapkzQsdpMDPYY,FALSE,,"Mozilla/5.0 (Windows NT 10.0; Win64; x64) AppleWebKit/537.36 (KHTML, like Gecko) Chrome/92.0.4515.159 Safari/537.36",1536,722,1536,864,,,,,,,,7,3.1559,0.393518538,-0.418518589,1,0,0,next_trial_button,0,54,54,51,1,beach,visiblesun,yesclouds,6,"657.1279916753382,500",
,,,,,,,gr,gr,gr,m,23,,2021-09-01_14h24.02.334,online_experiment,2021.1.4,Win32,60.92731371,IwAR3ZnVseLOoRoV1xIlfDQjl1Nkx8REq0PDeZFTBDY8chvQapkzQsdpMDPYY,FALSE,,"Mozilla/5.0 (Windows NT 10.0; Win64; x64) AppleWebKit/537.36 (KHTML, like Gecko) Chrome/92.0.4515.159 Safari/537.36",1536,722,1536,864,,,,,,,,6,3.5525,0.3564815,-0.41666668,1,0,0,next_trial_button,0,55,55,57,1,beach,invisiblesun,yesclouds,7,"749.707488299532,500",
,,,,,,,gr,gr,gr,m,23,,2021-09-01_14h24.02.334,online_experiment,2021.1.4,Win32,60.92731371,IwAR3ZnVseLOoRoV1xIlfDQjl1Nkx8REq0PDeZFTBDY8chvQapkzQsdpMDPYY,FALSE,,"Mozilla/5.0 (Windows NT 10.0; Win64; x64) AppleWebKit/537.36 (KHTML, like Gecko) Chrome/92.0.4515.159 Safari/537.36",1536,722,1536,864,,,,,,,,7,2.4349,0.411111244,-0.407407421,1,0,0,next_trial_button,0,56,56,15,1,landscape,visiblesun,yesclouds,1,"333.3333333333333,500",
,,,,,,,gr,gr,gr,m,23,,2021-09-01_14h24.02.334,online_experiment,2021.1.4,Win32,60.92731371,IwAR3ZnVseLOoRoV1xIlfDQjl1Nkx8REq0PDeZFTBDY8chvQapkzQsdpMDPYY,FALSE,,"Mozilla/5.0 (Windows NT 10.0; Win64; x64) AppleWebKit/537.36 (KHTML, like Gecko) Chrome/92.0.4515.159 Safari/537.36",1536,722,1536,864,,,,,,,,5,3.0501,0.418518538,-0.458333348,1,0,0,next_trial_button,0,57,57,43,1,beach,visiblesun,yesclouds,5,"750,500",
,,,,,,,gr,gr,gr,m,23,,2021-09-01_14h24.02.334,online_experiment,2021.1.4,Win32,60.92731371,IwAR3ZnVseLOoRoV1xIlfDQjl1Nkx8REq0PDeZFTBDY8chvQapkzQsdpMDPYY,FALSE,,"Mozilla/5.0 (Windows NT 10.0; Win64; x64) AppleWebKit/537.36 (KHTML, like Gecko) Chrome/92.0.4515.159 Safari/537.36",1536,722,1536,864,,,,,,,,2,2.1505,0.368518537,-0.435185199,1,0,0,next_trial_button,0,58,58,30,1,landscape,visiblesun,noclouds,3,"346.3035019455253,500",
,,,,,,,gr,gr,gr,m,23,,2021-09-01_14h24.02.334,online_experiment,2021.1.4,Win32,60.92731371,IwAR3ZnVseLOoRoV1xIlfDQjl1Nkx8REq0PDeZFTBDY8chvQapkzQsdpMDPYY,FALSE,,"Mozilla/5.0 (Windows NT 10.0; Win64; x64) AppleWebKit/537.36 (KHTML, like Gecko) Chrome/92.0.4515.159 Safari/537.36",1536,722,1536,864,,,,,,,,4,3.4149,0.323148279,-0.399074087,1,0,0,next_trial_button,0,59,59,47,1,landscape,visiblesun,yesclouds,5,"666.6666666666666,500",
,,,,,,,gr,gr,gr,m,23,,2021-09-01_14h24.02.334,online_experiment,2021.1.4,Win32,60.92731371,IwAR3ZnVseLOoRoV1xIlfDQjl1Nkx8REq0PDeZFTBDY8chvQapkzQsdpMDPYY,FALSE,,"Mozilla/5.0 (Windows NT 10.0; Win64; x64) AppleWebKit/537.36 (KHTML, like Gecko) Chrome/92.0.4515.159 Safari/537.36",1536,722,1536,864,,,,,,,,5,2.5202,0.388888908,-0.403703717,1,0,0,next_trial_button,0,60,60,22,1,landscape,visiblesun,noclouds,2,"749.3333333333333,500",
,,,,,,,gr,gr,gr,m,23,,2021-09-01_14h24.02.334,online_experiment,2021.1.4,Win32,60.92731371,IwAR3ZnVseLOoRoV1xIlfDQjl1Nkx8REq0PDeZFTBDY8chvQapkzQsdpMDPYY,FALSE,,"Mozilla/5.0 (Windows NT 10.0; Win64; x64) AppleWebKit/537.36 (KHTML, like Gecko) Chrome/92.0.4515.159 Safari/537.36",1536,722,1536,864,,,,,,,,6,5.4848,0.362962982,-0.409259329,1,0,0,next_trial_button,0,61,61,0,1,beach,invisiblesun,noclouds,0,"750,500",
,,,,,,,gr,gr,gr,m,23,,2021-09-01_14h24.02.334,online_experiment,2021.1.4,Win32,60.92731371,IwAR3ZnVseLOoRoV1xIlfDQjl1Nkx8REq0PDeZFTBDY8chvQapkzQsdpMDPYY,FALSE,,"Mozilla/5.0 (Windows NT 10.0; Win64; x64) AppleWebKit/537.36 (KHTML, like Gecko) Chrome/92.0.4515.159 Safari/537.36",1536,722,1536,864,,,,,,,,2,2.304,0.3814815,-0.447222236,1,0,0,next_trial_button,0,62,62,71,1,landscape,visiblesun,yesclouds,8,"666.6666666666666,500",
,,,,,,,gr,gr,gr,m,23,,2021-09-01_14h24.02.334,online_experiment,2021.1.4,Win32,60.92731371,IwAR3ZnVseLOoRoV1xIlfDQjl1Nkx8REq0PDeZFTBDY8chvQapkzQsdpMDPYY,FALSE,,"Mozilla/5.0 (Windows NT 10.0; Win64; x64) AppleWebKit/537.36 (KHTML, like Gecko) Chrome/92.0.4515.159 Safari/537.36",1536,722,1536,864,,,,,,,,9,3.1003,0.32222224,-0.407407421,1,0,0,next_trial_button,0,63,63,45,1,landscape,invisiblesun,yesclouds,5,"749.6251874062968,500",
,,,,,,,gr,gr,gr,m,23,,2021-09-01_14h24.02.334,online_experiment,2021.1.4,Win32,60.92731371,IwAR3ZnVseLOoRoV1xIlfDQjl1Nkx8REq0PDeZFTBDY8chvQapkzQsdpMDPYY,FALSE,,"Mozilla/5.0 (Windows NT 10.0; Win64; x64) AppleWebKit/537.36 (KHTML, like Gecko) Chrome/92.0.4515.159 Safari/537.36",1536,722,1536,864,,,,,,,,5,4.7499,0.44537039,-0.437037108,1,0,0,next_trial_button,0,64,64,39,1,landscape,visiblesun,yesclouds,4,"749.7656982193065,500",
,,,,,,,gr,gr,gr,m,23,,2021-09-01_14h24.02.334,online_experiment,2021.1.4,Win32,60.92731371,IwAR3ZnVseLOoRoV1xIlfDQjl1Nkx8REq0PDeZFTBDY8chvQapkzQsdpMDPYY,FALSE,,"Mozilla/5.0 (Windows NT 10.0; Win64; x64) AppleWebKit/537.36 (KHTML, like Gecko) Chrome/92.0.4515.159 Safari/537.36",1536,722,1536,864,,,,,,,,6,2.7039,0.481481502,-0.39537044,1,0,0,next_trial_button,0,65,65,6,1,landscape,visiblesun,noclouds,0,"1413.8005159071367,500",
,,,,,,,gr,gr,gr,m,23,,2021-09-01_14h24.02.334,online_experiment,2021.1.4,Win32,60.92731371,IwAR3ZnVseLOoRoV1xIlfDQjl1Nkx8REq0PDeZFTBDY8chvQapkzQsdpMDPYY,FALSE,,"Mozilla/5.0 (Windows NT 10.0; Win64; x64) AppleWebKit/537.36 (KHTML, like Gecko) Chrome/92.0.4515.159 Safari/537.36",1536,722,1536,864,,,,,,,,2,1.9471,0.426851871,-0.425000014,1,0,0,next_trial_button,0,66,66,72,1,beach,invisiblesun,noclouds,9,"888.8888888888888,500",
,,,,,,,gr,gr,gr,m,23,,2021-09-01_14h24.02.334,online_experiment,2021.1.4,Win32,60.92731371,IwAR3ZnVseLOoRoV1xIlfDQjl1Nkx8REq0PDeZFTBDY8chvQapkzQsdpMDPYY,FALSE,,"Mozilla/5.0 (Windows NT 10.0; Win64; x64) AppleWebKit/537.36 (KHTML, like Gecko) Chrome/92.0.4515.159 Safari/537.36",1536,722,1536,864,,,,,,,,4,4.5161,0.450925946,-0.427777848,1,0,0,next_trial_button,0,67,67,74,1,beach,visiblesun,noclouds,9,"1028.5714285714284,500",
,,,,,,,gr,gr,gr,m,23,,2021-09-01_14h24.02.334,online_experiment,2021.1.4,Win32,60.92731371,IwAR3ZnVseLOoRoV1xIlfDQjl1Nkx8REq0PDeZFTBDY8chvQapkzQsdpMDPYY,FALSE,,"Mozilla/5.0 (Windows NT 10.0; Win64; x64) AppleWebKit/537.36 (KHTML, like Gecko) Chrome/92.0.4515.159 Safari/537.36",1536,722,1536,864,,,,,,,,3,2.2239,0.491666687,-0.382407421,1,0,0,next_trial_button,0,68,68,10,1,beach,visiblesun,noclouds,1,"747.0261697065821,500",
,,,,,,,gr,gr,gr,m,23,,2021-09-01_14h24.02.334,online_experiment,2021.1.4,Win32,60.92731371,IwAR3ZnVseLOoRoV1xIlfDQjl1Nkx8REq0PDeZFTBDY8chvQapkzQsdpMDPYY,FALSE,,"Mozilla/5.0 (Windows NT 10.0; Win64; x64) AppleWebKit/537.36 (KHTML, like Gecko) Chrome/92.0.4515.159 Safari/537.36",1536,722,1536,864,,,,,,,,6,3.7865,0.512037058,-0.417592606,1,0,0,next_trial_button,0,69,69,17,1,beach,invisiblesun,yesclouds,2,"684.8635235732011,500",
,,,,,,,gr,gr,gr,m,23,,2021-09-01_14h24.02.334,online_experiment,2021.1.4,Win32,60.92731371,IwAR3ZnVseLOoRoV1xIlfDQjl1Nkx8REq0PDeZFTBDY8chvQapkzQsdpMDPYY,FALSE,,"Mozilla/5.0 (Windows NT 10.0; Win64; x64) AppleWebKit/537.36 (KHTML, like Gecko) Chrome/92.0.4515.159 Safari/537.36",1536,722,1536,864,,,,,,,,5,7.013,0.317592611,-0.390740811,1,0,0,next_trial_button,0,70,70,34,1,beach,visiblesun,noclouds,4,"749.6251874062968,500",
,,,,,,,gr,gr,gr,m,23,,2021-09-01_14h24.02.334,online_experiment,2021.1.4,Win32,60.92731371,IwAR3ZnVseLOoRoV1xIlfDQjl1Nkx8REq0PDeZFTBDY8chvQapkzQsdpMDPYY,FALSE,,"Mozilla/5.0 (Windows NT 10.0; Win64; x64) AppleWebKit/537.36 (KHTML, like Gecko) Chrome/92.0.4515.159 Safari/537.36",1536,722,1536,864,,,,,,,,3,14.3572,0.363888908,-0.411111125,1,0,0,next_trial_button,0,71,71,46,1,landscape,visiblesun,noclouds,5,"750,500",
,,,,,,,gr,gr,gr,m,23,,2021-09-01_14h24.02.334,online_experiment,2021.1.4,Win32,60.92731371,IwAR3ZnVseLOoRoV1xIlfDQjl1Nkx8REq0PDeZFTBDY8chvQapkzQsdpMDPYY,FALSE,,"Mozilla/5.0 (Windows NT 10.0; Win64; x64) AppleWebKit/537.36 (KHTML, like Gecko) Chrome/92.0.4515.159 Safari/537.36",1536,722,1536,864,,,,,,,,8,2.233,0.430555575,-0.42592594,1,0,0,next_trial_button,0,72,72,33,1,beach,invisiblesun,yesclouds,4,"751.5473032714411,500",
,,,,,,,gr,gr,gr,m,23,,2021-09-01_14h24.02.334,online_experiment,2021.1.4,Win32,60.92731371,IwAR3ZnVseLOoRoV1xIlfDQjl1Nkx8REq0PDeZFTBDY8chvQapkzQsdpMDPYY,FALSE,,"Mozilla/5.0 (Windows NT 10.0; Win64; x64) AppleWebKit/537.36 (KHTML, like Gecko) Chrome/92.0.4515.159 Safari/537.36",1536,722,1536,864,,,,,,,,9,3.3496,0.346296428,-0.430555569,1,0,0,next_trial_button,0,73,73,61,1,landscape,invisiblesun,yesclouds,7,"500,500",
,,,,,,,gr,gr,gr,m,23,,2021-09-01_14h24.02.334,online_experiment,2021.1.4,Win32,60.92731371,IwAR3ZnVseLOoRoV1xIlfDQjl1Nkx8REq0PDeZFTBDY8chvQapkzQsdpMDPYY,FALSE,,"Mozilla/5.0 (Windows NT 10.0; Win64; x64) AppleWebKit/537.36 (KHTML, like Gecko) Chrome/92.0.4515.159 Safari/537.36",1536,722,1536,864,,,,,,,,3,3.484,0.526851986,-0.410185199,1,0,0,next_trial_button,0,74,74,7,1,landscape,visiblesun,yesclouds,0,"743.421052631579,500",
,,,,,,,gr,gr,gr,m,23,,2021-09-01_14h24.02.334,online_experiment,2021.1.4,Win32,60.92731371,IwAR3ZnVseLOoRoV1xIlfDQjl1Nkx8REq0PDeZFTBDY8chvQapkzQsdpMDPYY,FALSE,,"Mozilla/5.0 (Windows NT 10.0; Win64; x64) AppleWebKit/537.36 (KHTML, like Gecko) Chrome/92.0.4515.159 Safari/537.36",1536,722,1536,864,,,,,,,,2,2.5417,0.357407426,-0.428703718,1,0,0,next_trial_button,0,75,75,68,1,landscape,invisiblesun,noclouds,8,"666.6666666666666,500",
,,,,,,,gr,gr,gr,m,23,,2021-09-01_14h24.02.334,online_experiment,2021.1.4,Win32,60.92731371,IwAR3ZnVseLOoRoV1xIlfDQjl1Nkx8REq0PDeZFTBDY8chvQapkzQsdpMDPYY,FALSE,,"Mozilla/5.0 (Windows NT 10.0; Win64; x64) AppleWebKit/537.36 (KHTML, like Gecko) Chrome/92.0.4515.159 Safari/537.36",1536,722,1536,864,,,,,,,,3,3.6375,0.412962982,-0.408333347,1,0,0,next_trial_button,0,76,76,32,1,beach,invisiblesun,noclouds,4,"750,500",
,,,,,,,gr,gr,gr,m,23,,2021-09-01_14h24.02.334,online_experiment,2021.1.4,Win32,60.92731371,IwAR3ZnVseLOoRoV1xIlfDQjl1Nkx8REq0PDeZFTBDY8chvQapkzQsdpMDPYY,FALSE,,"Mozilla/5.0 (Windows NT 10.0; Win64; x64) AppleWebKit/537.36 (KHTML, like Gecko) Chrome/92.0.4515.159 Safari/537.36",1536,722,1536,864,,,,,,,,2,13.4098,0.442592612,-0.394444458,1,0,0,next_trial_button,0,77,77,36,1,landscape,invisiblesun,noclouds,4,"281.25,500",
,,,,,,,gr,gr,gr,m,23,,2021-09-01_14h24.02.334,online_experiment,2021.1.4,Win32,60.92731371,IwAR3ZnVseLOoRoV1xIlfDQjl1Nkx8REq0PDeZFTBDY8chvQapkzQsdpMDPYY,FALSE,,"Mozilla/5.0 (Windows NT 10.0; Win64; x64) AppleWebKit/537.36 (KHTML, like Gecko) Chrome/92.0.4515.159 Safari/537.36",1536,722,1536,864,,,,,,,,2,4.3517,0.482407428,-0.437037108,1,0,0,next_trial_button,0,78,78,78,1,landscape,visiblesun,noclouds,9,"666.6666666666666,500",
,,,,,,,gr,gr,gr,m,23,,2021-09-01_14h24.02.334,online_experiment,2021.1.4,Win32,60.92731371,IwAR3ZnVseLOoRoV1xIlfDQjl1Nkx8REq0PDeZFTBDY8chvQapkzQsdpMDPYY,FALSE,,"Mozilla/5.0 (Windows NT 10.0; Win64; x64) AppleWebKit/537.36 (KHTML, like Gecko) Chrome/92.0.4515.159 Safari/537.36",1536,722,1536,864,,,,,,,,2,3.3784,0.50925928,-0.435185199,1,0,0,next_trial_button,0,79,79,28,1,landscape,invisiblesun,noclouds,3,"888.8888888888888,500",
,,,,,,,gr,gr,gr,m,23,,2021-09-01_14h24.02.334,online_experiment,2021.1.4,Win32,60.92731371,IwAR3ZnVseLOoRoV1xIlfDQjl1Nkx8REq0PDeZFTBDY8chvQapkzQsdpMDPYY,FALSE,,"Mozilla/5.0 (Windows NT 10.0; Win64; x64) AppleWebKit/537.36 (KHTML, like Gecko) Chrome/92.0.4515.159 Safari/537.36",1536,722,1536,864,,,,,,,,,,,,,,,,,,,,,,,,,"888.8888888888888,500",438.3594
