language_mouse.x,language_mouse.y,language_mouse.leftButton,language_mouse.midButton,language_mouse.rightButton,language_mouse.time,language_mouse.clicked_name,nationality,mother_tongue,homeland,gender,age,email,date,expName,psychopyVersion,OS,frameRate,fbclid,cancel_experiment,cancel_reasons,client_agent_information,windowWidth,windowHeight,xRes,yRes,start_exp_mouse.x,start_exp_mouse.y,start_exp_mouse.leftButton,start_exp_mouse.midButton,start_exp_mouse.rightButton,start_exp_mouse.time,start_exp_mouse.clicked_name,rating_slider.response,rating_slider.rt,next_trial_mouse.x,next_trial_mouse.y,next_trial_mouse.leftButton,next_trial_mouse.midButton,next_trial_mouse.rightButton,next_trial_mouse.clicked_name,trials.thisRepN,trials.thisTrialN,trials.thisN,trials.thisIndex,trials.ran,environment,sunVisibility,cloudVisibility,imageId,imgSize,globalClockTime
0.22265625,-0.296875,1,0,0,301.9517,gr_flag,gr,gr,gr,f,56,,2021-09-01_14h53.26.832,online_experiment,2021.1.4,Win32,60.22645146,IwAR0owbEXnFZuJpsP7q7_94RrvXjxJWz0ldaPecwB1alGqxN_fTI_brkfZWg,FALSE,,"Mozilla/5.0 (Windows NT 10.0; Win64; x64) AppleWebKit/537.36 (KHTML, like Gecko) Chrome/92.0.4515.159 Safari/537.36",1366,625,1366,768,,,,,,,,,,,,,,,,,,,,,,,,,,
,,,,,,,gr,gr,gr,f,56,,2021-09-01_14h53.26.832,online_experiment,2021.1.4,Win32,60.22645146,IwAR0owbEXnFZuJpsP7q7_94RrvXjxJWz0ldaPecwB1alGqxN_fTI_brkfZWg,FALSE,,"Mozilla/5.0 (Windows NT 10.0; Win64; x64) AppleWebKit/537.36 (KHTML, like Gecko) Chrome/92.0.4515.159 Safari/537.36",1366,625,1366,768,-0.026041667,-0.42578125,1,0,0,23.9986,cont_gr,5,3.3964,0.361979167,-0.430989583,1,0,0,next_trial_button,0,0,0,75,1,beach,visiblesun,yesclouds,9,"1029.6010296010297,500",
,,,,,,,gr,gr,gr,f,56,,2021-09-01_14h53.26.832,online_experiment,2021.1.4,Win32,60.22645146,IwAR0owbEXnFZuJpsP7q7_94RrvXjxJWz0ldaPecwB1alGqxN_fTI_brkfZWg,FALSE,,"Mozilla/5.0 (Windows NT 10.0; Win64; x64) AppleWebKit/537.36 (KHTML, like Gecko) Chrome/92.0.4515.159 Safari/537.36",1366,625,1366,768,,,,,,,,5,2.2685,0.486979167,-0.430989583,1,0,0,next_trial_button,0,1,1,16,1,beach,invisiblesun,noclouds,2,"752.8089887640449,500",
,,,,,,,gr,gr,gr,f,56,,2021-09-01_14h53.26.832,online_experiment,2021.1.4,Win32,60.22645146,IwAR0owbEXnFZuJpsP7q7_94RrvXjxJWz0ldaPecwB1alGqxN_fTI_brkfZWg,FALSE,,"Mozilla/5.0 (Windows NT 10.0; Win64; x64) AppleWebKit/537.36 (KHTML, like Gecko) Chrome/92.0.4515.159 Safari/537.36",1366,625,1366,768,,,,,,,,1,3.0595,0.375,-0.42578125,1,0,0,next_trial_button,0,2,2,5,1,landscape,invisiblesun,yesclouds,0,"750.4690431519699,500",
,,,,,,,gr,gr,gr,f,56,,2021-09-01_14h53.26.832,online_experiment,2021.1.4,Win32,60.22645146,IwAR0owbEXnFZuJpsP7q7_94RrvXjxJWz0ldaPecwB1alGqxN_fTI_brkfZWg,FALSE,,"Mozilla/5.0 (Windows NT 10.0; Win64; x64) AppleWebKit/537.36 (KHTML, like Gecko) Chrome/92.0.4515.159 Safari/537.36",1366,625,1366,768,,,,,,,,6,2.5056,0.354166667,-0.39453125,1,0,0,next_trial_button,0,3,3,42,1,beach,visiblesun,noclouds,5,"834.4594594594595,500",
,,,,,,,gr,gr,gr,f,56,,2021-09-01_14h53.26.832,online_experiment,2021.1.4,Win32,60.22645146,IwAR0owbEXnFZuJpsP7q7_94RrvXjxJWz0ldaPecwB1alGqxN_fTI_brkfZWg,FALSE,,"Mozilla/5.0 (Windows NT 10.0; Win64; x64) AppleWebKit/537.36 (KHTML, like Gecko) Chrome/92.0.4515.159 Safari/537.36",1366,625,1366,768,,,,,,,,4,1.8423,0.373697917,-0.40234375,1,0,0,next_trial_button,0,4,4,54,1,landscape,visiblesun,noclouds,6,"695.0043821209465,500",
,,,,,,,gr,gr,gr,f,56,,2021-09-01_14h53.26.832,online_experiment,2021.1.4,Win32,60.22645146,IwAR0owbEXnFZuJpsP7q7_94RrvXjxJWz0ldaPecwB1alGqxN_fTI_brkfZWg,FALSE,,"Mozilla/5.0 (Windows NT 10.0; Win64; x64) AppleWebKit/537.36 (KHTML, like Gecko) Chrome/92.0.4515.159 Safari/537.36",1366,625,1366,768,,,,,,,,2,2.5365,0.466145833,-0.4140625,1,0,0,next_trial_button,0,5,5,45,1,landscape,invisiblesun,yesclouds,5,"749.6251874062968,500",
,,,,,,,gr,gr,gr,f,56,,2021-09-01_14h53.26.832,online_experiment,2021.1.4,Win32,60.22645146,IwAR0owbEXnFZuJpsP7q7_94RrvXjxJWz0ldaPecwB1alGqxN_fTI_brkfZWg,FALSE,,"Mozilla/5.0 (Windows NT 10.0; Win64; x64) AppleWebKit/537.36 (KHTML, like Gecko) Chrome/92.0.4515.159 Safari/537.36",1366,625,1366,768,,,,,,,,2,2.2676,0.528645833,-0.42578125,1,0,0,next_trial_button,0,6,6,46,1,landscape,visiblesun,noclouds,5,"750,500",
,,,,,,,gr,gr,gr,f,56,,2021-09-01_14h53.26.832,online_experiment,2021.1.4,Win32,60.22645146,IwAR0owbEXnFZuJpsP7q7_94RrvXjxJWz0ldaPecwB1alGqxN_fTI_brkfZWg,FALSE,,"Mozilla/5.0 (Windows NT 10.0; Win64; x64) AppleWebKit/537.36 (KHTML, like Gecko) Chrome/92.0.4515.159 Safari/537.36",1366,625,1366,768,,,,,,,,4,2.3973,0.375,-0.415364583,1,0,0,next_trial_button,0,7,7,15,1,landscape,visiblesun,yesclouds,1,"333.3333333333333,500",
,,,,,,,gr,gr,gr,f,56,,2021-09-01_14h53.26.832,online_experiment,2021.1.4,Win32,60.22645146,IwAR0owbEXnFZuJpsP7q7_94RrvXjxJWz0ldaPecwB1alGqxN_fTI_brkfZWg,FALSE,,"Mozilla/5.0 (Windows NT 10.0; Win64; x64) AppleWebKit/537.36 (KHTML, like Gecko) Chrome/92.0.4515.159 Safari/537.36",1366,625,1366,768,,,,,,,,2,2.4697,0.45703125,-0.421875,1,0,0,next_trial_button,0,8,8,71,1,landscape,visiblesun,yesclouds,8,"666.6666666666666,500",
,,,,,,,gr,gr,gr,f,56,,2021-09-01_14h53.26.832,online_experiment,2021.1.4,Win32,60.22645146,IwAR0owbEXnFZuJpsP7q7_94RrvXjxJWz0ldaPecwB1alGqxN_fTI_brkfZWg,FALSE,,"Mozilla/5.0 (Windows NT 10.0; Win64; x64) AppleWebKit/537.36 (KHTML, like Gecko) Chrome/92.0.4515.159 Safari/537.36",1366,625,1366,768,,,,,,,,4,1.6669,0.361979167,-0.424479167,1,0,0,next_trial_button,0,9,9,7,1,landscape,visiblesun,yesclouds,0,"743.421052631579,500",
,,,,,,,gr,gr,gr,f,56,,2021-09-01_14h53.26.832,online_experiment,2021.1.4,Win32,60.22645146,IwAR0owbEXnFZuJpsP7q7_94RrvXjxJWz0ldaPecwB1alGqxN_fTI_brkfZWg,FALSE,,"Mozilla/5.0 (Windows NT 10.0; Win64; x64) AppleWebKit/537.36 (KHTML, like Gecko) Chrome/92.0.4515.159 Safari/537.36",1366,625,1366,768,,,,,,,,1,2.0339,0.381510417,-0.415364583,1,0,0,next_trial_button,0,10,10,68,1,landscape,invisiblesun,noclouds,8,"666.6666666666666,500",
,,,,,,,gr,gr,gr,f,56,,2021-09-01_14h53.26.832,online_experiment,2021.1.4,Win32,60.22645146,IwAR0owbEXnFZuJpsP7q7_94RrvXjxJWz0ldaPecwB1alGqxN_fTI_brkfZWg,FALSE,,"Mozilla/5.0 (Windows NT 10.0; Win64; x64) AppleWebKit/537.36 (KHTML, like Gecko) Chrome/92.0.4515.159 Safari/537.36",1366,625,1366,768,,,,,,,,3,2.0134,0.338541667,-0.40234375,1,0,0,next_trial_button,0,11,11,55,1,landscape,visiblesun,yesclouds,6,"749.8819083608881,500",
,,,,,,,gr,gr,gr,f,56,,2021-09-01_14h53.26.832,online_experiment,2021.1.4,Win32,60.22645146,IwAR0owbEXnFZuJpsP7q7_94RrvXjxJWz0ldaPecwB1alGqxN_fTI_brkfZWg,FALSE,,"Mozilla/5.0 (Windows NT 10.0; Win64; x64) AppleWebKit/537.36 (KHTML, like Gecko) Chrome/92.0.4515.159 Safari/537.36",1366,625,1366,768,,,,,,,,8,2.1207,0.3828125,-0.408854167,1,0,0,next_trial_button,0,12,12,49,1,beach,invisiblesun,yesclouds,6,"858.4474885844749,500",
,,,,,,,gr,gr,gr,f,56,,2021-09-01_14h53.26.832,online_experiment,2021.1.4,Win32,60.22645146,IwAR0owbEXnFZuJpsP7q7_94RrvXjxJWz0ldaPecwB1alGqxN_fTI_brkfZWg,FALSE,,"Mozilla/5.0 (Windows NT 10.0; Win64; x64) AppleWebKit/537.36 (KHTML, like Gecko) Chrome/92.0.4515.159 Safari/537.36",1366,625,1366,768,,,,,,,,1,3.0096,0.408854167,-0.3984375,1,0,0,next_trial_button,0,13,13,44,1,landscape,invisiblesun,noclouds,5,"666.6666666666666,500",
,,,,,,,gr,gr,gr,f,56,,2021-09-01_14h53.26.832,online_experiment,2021.1.4,Win32,60.22645146,IwAR0owbEXnFZuJpsP7q7_94RrvXjxJWz0ldaPecwB1alGqxN_fTI_brkfZWg,FALSE,,"Mozilla/5.0 (Windows NT 10.0; Win64; x64) AppleWebKit/537.36 (KHTML, like Gecko) Chrome/92.0.4515.159 Safari/537.36",1366,625,1366,768,,,,,,,,3,1.882,0.3359375,-0.4140625,1,0,0,next_trial_button,0,14,14,61,1,landscape,invisiblesun,yesclouds,7,"500,500",
,,,,,,,gr,gr,gr,f,56,,2021-09-01_14h53.26.832,online_experiment,2021.1.4,Win32,60.22645146,IwAR0owbEXnFZuJpsP7q7_94RrvXjxJWz0ldaPecwB1alGqxN_fTI_brkfZWg,FALSE,,"Mozilla/5.0 (Windows NT 10.0; Win64; x64) AppleWebKit/537.36 (KHTML, like Gecko) Chrome/92.0.4515.159 Safari/537.36",1366,625,1366,768,,,,,,,,3,1.907,0.41015625,-0.399739583,1,0,0,next_trial_button,0,15,15,70,1,landscape,visiblesun,noclouds,8,"666.6666666666666,500",
,,,,,,,gr,gr,gr,f,56,,2021-09-01_14h53.26.832,online_experiment,2021.1.4,Win32,60.22645146,IwAR0owbEXnFZuJpsP7q7_94RrvXjxJWz0ldaPecwB1alGqxN_fTI_brkfZWg,FALSE,,"Mozilla/5.0 (Windows NT 10.0; Win64; x64) AppleWebKit/537.36 (KHTML, like Gecko) Chrome/92.0.4515.159 Safari/537.36",1366,625,1366,768,,,,,,,,8,2.0675,0.36328125,-0.412760417,1,0,0,next_trial_button,0,16,16,50,1,beach,visiblesun,noclouds,6,"666.6666666666666,500",
,,,,,,,gr,gr,gr,f,56,,2021-09-01_14h53.26.832,online_experiment,2021.1.4,Win32,60.22645146,IwAR0owbEXnFZuJpsP7q7_94RrvXjxJWz0ldaPecwB1alGqxN_fTI_brkfZWg,FALSE,,"Mozilla/5.0 (Windows NT 10.0; Win64; x64) AppleWebKit/537.36 (KHTML, like Gecko) Chrome/92.0.4515.159 Safari/537.36",1366,625,1366,768,,,,,,,,5,2.3058,0.390625,-0.434895833,1,0,0,next_trial_button,0,17,17,53,1,landscape,invisiblesun,yesclouds,6,"750.0695023630803,500",
,,,,,,,gr,gr,gr,f,56,,2021-09-01_14h53.26.832,online_experiment,2021.1.4,Win32,60.22645146,IwAR0owbEXnFZuJpsP7q7_94RrvXjxJWz0ldaPecwB1alGqxN_fTI_brkfZWg,FALSE,,"Mozilla/5.0 (Windows NT 10.0; Win64; x64) AppleWebKit/537.36 (KHTML, like Gecko) Chrome/92.0.4515.159 Safari/537.36",1366,625,1366,768,,,,,,,,5,1.8307,0.41796875,-0.3984375,1,0,0,next_trial_button,0,18,18,62,1,landscape,visiblesun,noclouds,7,"417.42389822807814,500",
,,,,,,,gr,gr,gr,f,56,,2021-09-01_14h53.26.832,online_experiment,2021.1.4,Win32,60.22645146,IwAR0owbEXnFZuJpsP7q7_94RrvXjxJWz0ldaPecwB1alGqxN_fTI_brkfZWg,FALSE,,"Mozilla/5.0 (Windows NT 10.0; Win64; x64) AppleWebKit/537.36 (KHTML, like Gecko) Chrome/92.0.4515.159 Safari/537.36",1366,625,1366,768,,,,,,,,8,3.9356,0.380208333,-0.4140625,1,0,0,next_trial_button,0,19,19,57,1,beach,invisiblesun,yesclouds,7,"749.707488299532,500",
,,,,,,,gr,gr,gr,f,56,,2021-09-01_14h53.26.832,online_experiment,2021.1.4,Win32,60.22645146,IwAR0owbEXnFZuJpsP7q7_94RrvXjxJWz0ldaPecwB1alGqxN_fTI_brkfZWg,FALSE,,"Mozilla/5.0 (Windows NT 10.0; Win64; x64) AppleWebKit/537.36 (KHTML, like Gecko) Chrome/92.0.4515.159 Safari/537.36",1366,625,1366,768,,,,,,,,8,1.9027,0.38671875,-0.424479167,1,0,0,next_trial_button,0,20,20,27,1,beach,visiblesun,yesclouds,3,"752.8089887640449,500",
,,,,,,,gr,gr,gr,f,56,,2021-09-01_14h53.26.832,online_experiment,2021.1.4,Win32,60.22645146,IwAR0owbEXnFZuJpsP7q7_94RrvXjxJWz0ldaPecwB1alGqxN_fTI_brkfZWg,FALSE,,"Mozilla/5.0 (Windows NT 10.0; Win64; x64) AppleWebKit/537.36 (KHTML, like Gecko) Chrome/92.0.4515.159 Safari/537.36",1366,625,1366,768,,,,,,,,6,1.7872,0.36328125,-0.395833333,1,0,0,next_trial_button,0,21,21,63,1,landscape,visiblesun,yesclouds,7,"331.94444444444446,500",
,,,,,,,gr,gr,gr,f,56,,2021-09-01_14h53.26.832,online_experiment,2021.1.4,Win32,60.22645146,IwAR0owbEXnFZuJpsP7q7_94RrvXjxJWz0ldaPecwB1alGqxN_fTI_brkfZWg,FALSE,,"Mozilla/5.0 (Windows NT 10.0; Win64; x64) AppleWebKit/537.36 (KHTML, like Gecko) Chrome/92.0.4515.159 Safari/537.36",1366,625,1366,768,,,,,,,,6,2.0246,0.432291667,-0.411458333,1,0,0,next_trial_button,0,22,22,13,1,landscape,invisiblesun,yesclouds,1,"783.1192660550458,500",
,,,,,,,gr,gr,gr,f,56,,2021-09-01_14h53.26.832,online_experiment,2021.1.4,Win32,60.22645146,IwAR0owbEXnFZuJpsP7q7_94RrvXjxJWz0ldaPecwB1alGqxN_fTI_brkfZWg,FALSE,,"Mozilla/5.0 (Windows NT 10.0; Win64; x64) AppleWebKit/537.36 (KHTML, like Gecko) Chrome/92.0.4515.159 Safari/537.36",1366,625,1366,768,,,,,,,,8,1.7773,0.376302083,-0.412760417,1,0,0,next_trial_button,0,23,23,18,1,beach,visiblesun,noclouds,2,"666.6666666666666,500",
,,,,,,,gr,gr,gr,f,56,,2021-09-01_14h53.26.832,online_experiment,2021.1.4,Win32,60.22645146,IwAR0owbEXnFZuJpsP7q7_94RrvXjxJWz0ldaPecwB1alGqxN_fTI_brkfZWg,FALSE,,"Mozilla/5.0 (Windows NT 10.0; Win64; x64) AppleWebKit/537.36 (KHTML, like Gecko) Chrome/92.0.4515.159 Safari/537.36",1366,625,1366,768,,,,,,,,4,1.8882,0.484375,-0.407552083,1,0,0,next_trial_button,0,24,24,30,1,landscape,visiblesun,noclouds,3,"346.3035019455253,500",
,,,,,,,gr,gr,gr,f,56,,2021-09-01_14h53.26.832,online_experiment,2021.1.4,Win32,60.22645146,IwAR0owbEXnFZuJpsP7q7_94RrvXjxJWz0ldaPecwB1alGqxN_fTI_brkfZWg,FALSE,,"Mozilla/5.0 (Windows NT 10.0; Win64; x64) AppleWebKit/537.36 (KHTML, like Gecko) Chrome/92.0.4515.159 Safari/537.36",1366,625,1366,768,,,,,,,,7,1.7294,0.37109375,-0.428385417,1,0,0,next_trial_button,0,25,25,72,1,beach,invisiblesun,noclouds,9,"888.8888888888888,500",
,,,,,,,gr,gr,gr,f,56,,2021-09-01_14h53.26.832,online_experiment,2021.1.4,Win32,60.22645146,IwAR0owbEXnFZuJpsP7q7_94RrvXjxJWz0ldaPecwB1alGqxN_fTI_brkfZWg,FALSE,,"Mozilla/5.0 (Windows NT 10.0; Win64; x64) AppleWebKit/537.36 (KHTML, like Gecko) Chrome/92.0.4515.159 Safari/537.36",1366,625,1366,768,,,,,,,,8,1.6097,0.373697917,-0.4296875,1,0,0,next_trial_button,0,26,26,40,1,beach,invisiblesun,noclouds,5,"1028.5714285714284,500",
,,,,,,,gr,gr,gr,f,56,,2021-09-01_14h53.26.832,online_experiment,2021.1.4,Win32,60.22645146,IwAR0owbEXnFZuJpsP7q7_94RrvXjxJWz0ldaPecwB1alGqxN_fTI_brkfZWg,FALSE,,"Mozilla/5.0 (Windows NT 10.0; Win64; x64) AppleWebKit/537.36 (KHTML, like Gecko) Chrome/92.0.4515.159 Safari/537.36",1366,625,1366,768,,,,,,,,6,1.9313,0.3203125,-0.423177083,1,0,0,next_trial_button,0,27,27,21,1,landscape,invisiblesun,yesclouds,2,"750,500",
,,,,,,,gr,gr,gr,f,56,,2021-09-01_14h53.26.832,online_experiment,2021.1.4,Win32,60.22645146,IwAR0owbEXnFZuJpsP7q7_94RrvXjxJWz0ldaPecwB1alGqxN_fTI_brkfZWg,FALSE,,"Mozilla/5.0 (Windows NT 10.0; Win64; x64) AppleWebKit/537.36 (KHTML, like Gecko) Chrome/92.0.4515.159 Safari/537.36",1366,625,1366,768,,,,,,,,7,2.0381,0.334635417,-0.41796875,1,0,0,next_trial_button,0,28,28,12,1,landscape,invisiblesun,noclouds,1,"666.6666666666666,500",
,,,,,,,gr,gr,gr,f,56,,2021-09-01_14h53.26.832,online_experiment,2021.1.4,Win32,60.22645146,IwAR0owbEXnFZuJpsP7q7_94RrvXjxJWz0ldaPecwB1alGqxN_fTI_brkfZWg,FALSE,,"Mozilla/5.0 (Windows NT 10.0; Win64; x64) AppleWebKit/537.36 (KHTML, like Gecko) Chrome/92.0.4515.159 Safari/537.36",1366,625,1366,768,,,,,,,,3,1.625,0.350260417,-0.416666667,1,0,0,next_trial_button,0,29,29,28,1,landscape,invisiblesun,noclouds,3,"888.8888888888888,500",
,,,,,,,gr,gr,gr,f,56,,2021-09-01_14h53.26.832,online_experiment,2021.1.4,Win32,60.22645146,IwAR0owbEXnFZuJpsP7q7_94RrvXjxJWz0ldaPecwB1alGqxN_fTI_brkfZWg,FALSE,,"Mozilla/5.0 (Windows NT 10.0; Win64; x64) AppleWebKit/537.36 (KHTML, like Gecko) Chrome/92.0.4515.159 Safari/537.36",1366,625,1366,768,,,,,,,,6,1.9347,0.4609375,-0.395833333,1,0,0,next_trial_button,0,30,30,22,1,landscape,visiblesun,noclouds,2,"749.3333333333333,500",
,,,,,,,gr,gr,gr,f,56,,2021-09-01_14h53.26.832,online_experiment,2021.1.4,Win32,60.22645146,IwAR0owbEXnFZuJpsP7q7_94RrvXjxJWz0ldaPecwB1alGqxN_fTI_brkfZWg,FALSE,,"Mozilla/5.0 (Windows NT 10.0; Win64; x64) AppleWebKit/537.36 (KHTML, like Gecko) Chrome/92.0.4515.159 Safari/537.36",1366,625,1366,768,,,,,,,,8,1.7236,0.376302083,-0.42578125,1,0,0,next_trial_button,0,31,31,8,1,beach,invisiblesun,noclouds,1,"1215.1898734177216,500",
,,,,,,,gr,gr,gr,f,56,,2021-09-01_14h53.26.832,online_experiment,2021.1.4,Win32,60.22645146,IwAR0owbEXnFZuJpsP7q7_94RrvXjxJWz0ldaPecwB1alGqxN_fTI_brkfZWg,FALSE,,"Mozilla/5.0 (Windows NT 10.0; Win64; x64) AppleWebKit/537.36 (KHTML, like Gecko) Chrome/92.0.4515.159 Safari/537.36",1366,625,1366,768,,,,,,,,5,1.772,0.384114583,-0.416666667,1,0,0,next_trial_button,0,32,32,31,1,landscape,visiblesun,yesclouds,3,"638.0622837370242,500",
,,,,,,,gr,gr,gr,f,56,,2021-09-01_14h53.26.832,online_experiment,2021.1.4,Win32,60.22645146,IwAR0owbEXnFZuJpsP7q7_94RrvXjxJWz0ldaPecwB1alGqxN_fTI_brkfZWg,FALSE,,"Mozilla/5.0 (Windows NT 10.0; Win64; x64) AppleWebKit/537.36 (KHTML, like Gecko) Chrome/92.0.4515.159 Safari/537.36",1366,625,1366,768,,,,,,,,8,1.7346,0.436197917,-0.421875,1,0,0,next_trial_button,0,33,33,17,1,beach,invisiblesun,yesclouds,2,"684.8635235732011,500",
,,,,,,,gr,gr,gr,f,56,,2021-09-01_14h53.26.832,online_experiment,2021.1.4,Win32,60.22645146,IwAR0owbEXnFZuJpsP7q7_94RrvXjxJWz0ldaPecwB1alGqxN_fTI_brkfZWg,FALSE,,"Mozilla/5.0 (Windows NT 10.0; Win64; x64) AppleWebKit/537.36 (KHTML, like Gecko) Chrome/92.0.4515.159 Safari/537.36",1366,625,1366,768,,,,,,,,8,2.1488,0.359375,-0.397135417,1,0,0,next_trial_button,0,34,34,58,1,beach,visiblesun,noclouds,7,"1028.5714285714284,500",
,,,,,,,gr,gr,gr,f,56,,2021-09-01_14h53.26.832,online_experiment,2021.1.4,Win32,60.22645146,IwAR0owbEXnFZuJpsP7q7_94RrvXjxJWz0ldaPecwB1alGqxN_fTI_brkfZWg,FALSE,,"Mozilla/5.0 (Windows NT 10.0; Win64; x64) AppleWebKit/537.36 (KHTML, like Gecko) Chrome/92.0.4515.159 Safari/537.36",1366,625,1366,768,,,,,,,,9,2.3036,0.451822917,-0.4296875,1,0,0,next_trial_button,0,35,35,24,1,beach,invisiblesun,noclouds,3,"750.089190153407,500",
,,,,,,,gr,gr,gr,f,56,,2021-09-01_14h53.26.832,online_experiment,2021.1.4,Win32,60.22645146,IwAR0owbEXnFZuJpsP7q7_94RrvXjxJWz0ldaPecwB1alGqxN_fTI_brkfZWg,FALSE,,"Mozilla/5.0 (Windows NT 10.0; Win64; x64) AppleWebKit/537.36 (KHTML, like Gecko) Chrome/92.0.4515.159 Safari/537.36",1366,625,1366,768,,,,,,,,7,2.1048,0.455729167,-0.4296875,1,0,0,next_trial_button,0,36,36,6,1,landscape,visiblesun,noclouds,0,"1413.8005159071367,500",
,,,,,,,gr,gr,gr,f,56,,2021-09-01_14h53.26.832,online_experiment,2021.1.4,Win32,60.22645146,IwAR0owbEXnFZuJpsP7q7_94RrvXjxJWz0ldaPecwB1alGqxN_fTI_brkfZWg,FALSE,,"Mozilla/5.0 (Windows NT 10.0; Win64; x64) AppleWebKit/537.36 (KHTML, like Gecko) Chrome/92.0.4515.159 Safari/537.36",1366,625,1366,768,,,,,,,,9,1.7156,0.453125,-0.401041667,1,0,0,next_trial_button,0,37,37,67,1,beach,visiblesun,yesclouds,8,"748.1481481481482,500",
,,,,,,,gr,gr,gr,f,56,,2021-09-01_14h53.26.832,online_experiment,2021.1.4,Win32,60.22645146,IwAR0owbEXnFZuJpsP7q7_94RrvXjxJWz0ldaPecwB1alGqxN_fTI_brkfZWg,FALSE,,"Mozilla/5.0 (Windows NT 10.0; Win64; x64) AppleWebKit/537.36 (KHTML, like Gecko) Chrome/92.0.4515.159 Safari/537.36",1366,625,1366,768,,,,,,,,6,1.6696,0.46484375,-0.446614583,1,0,0,next_trial_button,0,38,38,29,1,landscape,invisiblesun,yesclouds,3,"749.8660953401178,500",
,,,,,,,gr,gr,gr,f,56,,2021-09-01_14h53.26.832,online_experiment,2021.1.4,Win32,60.22645146,IwAR0owbEXnFZuJpsP7q7_94RrvXjxJWz0ldaPecwB1alGqxN_fTI_brkfZWg,FALSE,,"Mozilla/5.0 (Windows NT 10.0; Win64; x64) AppleWebKit/537.36 (KHTML, like Gecko) Chrome/92.0.4515.159 Safari/537.36",1366,625,1366,768,,,,,,,,8,2.0491,0.334635417,-0.43359375,1,0,0,next_trial_button,0,39,39,43,1,beach,visiblesun,yesclouds,5,"750,500",
,,,,,,,gr,gr,gr,f,56,,2021-09-01_14h53.26.832,online_experiment,2021.1.4,Win32,60.22645146,IwAR0owbEXnFZuJpsP7q7_94RrvXjxJWz0ldaPecwB1alGqxN_fTI_brkfZWg,FALSE,,"Mozilla/5.0 (Windows NT 10.0; Win64; x64) AppleWebKit/537.36 (KHTML, like Gecko) Chrome/92.0.4515.159 Safari/537.36",1366,625,1366,768,,,,,,,,7,2.4932,0.401041667,-0.389322917,1,0,0,next_trial_button,0,40,40,48,1,beach,invisiblesun,noclouds,6,"1028.5714285714284,500",
,,,,,,,gr,gr,gr,f,56,,2021-09-01_14h53.26.832,online_experiment,2021.1.4,Win32,60.22645146,IwAR0owbEXnFZuJpsP7q7_94RrvXjxJWz0ldaPecwB1alGqxN_fTI_brkfZWg,FALSE,,"Mozilla/5.0 (Windows NT 10.0; Win64; x64) AppleWebKit/537.36 (KHTML, like Gecko) Chrome/92.0.4515.159 Safari/537.36",1366,625,1366,768,,,,,,,,7,1.824,0.352864583,-0.42578125,1,0,0,next_trial_button,0,41,41,14,1,landscape,visiblesun,noclouds,1,"745.9919839679359,500",
,,,,,,,gr,gr,gr,f,56,,2021-09-01_14h53.26.832,online_experiment,2021.1.4,Win32,60.22645146,IwAR0owbEXnFZuJpsP7q7_94RrvXjxJWz0ldaPecwB1alGqxN_fTI_brkfZWg,FALSE,,"Mozilla/5.0 (Windows NT 10.0; Win64; x64) AppleWebKit/537.36 (KHTML, like Gecko) Chrome/92.0.4515.159 Safari/537.36",1366,625,1366,768,,,,,,,,7,1.7042,0.359375,-0.455729167,1,0,0,next_trial_button,0,42,42,38,1,landscape,visiblesun,noclouds,4,"733.3333333333333,500",
,,,,,,,gr,gr,gr,f,56,,2021-09-01_14h53.26.832,online_experiment,2021.1.4,Win32,60.22645146,IwAR0owbEXnFZuJpsP7q7_94RrvXjxJWz0ldaPecwB1alGqxN_fTI_brkfZWg,FALSE,,"Mozilla/5.0 (Windows NT 10.0; Win64; x64) AppleWebKit/537.36 (KHTML, like Gecko) Chrome/92.0.4515.159 Safari/537.36",1366,625,1366,768,,,,,,,,8,2.3029,0.361979167,-0.434895833,1,0,0,next_trial_button,0,43,43,59,1,beach,visiblesun,yesclouds,7,"888.9689978370584,500",
,,,,,,,gr,gr,gr,f,56,,2021-09-01_14h53.26.832,online_experiment,2021.1.4,Win32,60.22645146,IwAR0owbEXnFZuJpsP7q7_94RrvXjxJWz0ldaPecwB1alGqxN_fTI_brkfZWg,FALSE,,"Mozilla/5.0 (Windows NT 10.0; Win64; x64) AppleWebKit/537.36 (KHTML, like Gecko) Chrome/92.0.4515.159 Safari/537.36",1366,625,1366,768,,,,,,,,9,1.8875,0.388020833,-0.407552083,1,0,0,next_trial_button,0,44,44,2,1,beach,visiblesun,noclouds,0,"375,500",
,,,,,,,gr,gr,gr,f,56,,2021-09-01_14h53.26.832,online_experiment,2021.1.4,Win32,60.22645146,IwAR0owbEXnFZuJpsP7q7_94RrvXjxJWz0ldaPecwB1alGqxN_fTI_brkfZWg,FALSE,,"Mozilla/5.0 (Windows NT 10.0; Win64; x64) AppleWebKit/537.36 (KHTML, like Gecko) Chrome/92.0.4515.159 Safari/537.36",1366,625,1366,768,,,,,,,,9,1.6755,0.345052083,-0.415364583,1,0,0,next_trial_button,0,45,45,1,1,beach,invisiblesun,yesclouds,0,"666.6666666666666,500",
,,,,,,,gr,gr,gr,f,56,,2021-09-01_14h53.26.832,online_experiment,2021.1.4,Win32,60.22645146,IwAR0owbEXnFZuJpsP7q7_94RrvXjxJWz0ldaPecwB1alGqxN_fTI_brkfZWg,FALSE,,"Mozilla/5.0 (Windows NT 10.0; Win64; x64) AppleWebKit/537.36 (KHTML, like Gecko) Chrome/92.0.4515.159 Safari/537.36",1366,625,1366,768,,,,,,,,8,1.5717,0.368489583,-0.420572917,1,0,0,next_trial_button,0,46,46,73,1,beach,invisiblesun,yesclouds,9,"1028.5714285714284,500",
,,,,,,,gr,gr,gr,f,56,,2021-09-01_14h53.26.832,online_experiment,2021.1.4,Win32,60.22645146,IwAR0owbEXnFZuJpsP7q7_94RrvXjxJWz0ldaPecwB1alGqxN_fTI_brkfZWg,FALSE,,"Mozilla/5.0 (Windows NT 10.0; Win64; x64) AppleWebKit/537.36 (KHTML, like Gecko) Chrome/92.0.4515.159 Safari/537.36",1366,625,1366,768,,,,,,,,9,1.7884,0.342447917,-0.430989583,1,0,0,next_trial_button,0,47,47,0,1,beach,invisiblesun,noclouds,0,"750,500",
,,,,,,,gr,gr,gr,f,56,,2021-09-01_14h53.26.832,online_experiment,2021.1.4,Win32,60.22645146,IwAR0owbEXnFZuJpsP7q7_94RrvXjxJWz0ldaPecwB1alGqxN_fTI_brkfZWg,FALSE,,"Mozilla/5.0 (Windows NT 10.0; Win64; x64) AppleWebKit/537.36 (KHTML, like Gecko) Chrome/92.0.4515.159 Safari/537.36",1366,625,1366,768,,,,,,,,9,1.6511,0.3359375,-0.423177083,1,0,0,next_trial_button,0,48,48,51,1,beach,visiblesun,yesclouds,6,"657.1279916753382,500",
,,,,,,,gr,gr,gr,f,56,,2021-09-01_14h53.26.832,online_experiment,2021.1.4,Win32,60.22645146,IwAR0owbEXnFZuJpsP7q7_94RrvXjxJWz0ldaPecwB1alGqxN_fTI_brkfZWg,FALSE,,"Mozilla/5.0 (Windows NT 10.0; Win64; x64) AppleWebKit/537.36 (KHTML, like Gecko) Chrome/92.0.4515.159 Safari/537.36",1366,625,1366,768,,,,,,,,9,1.6714,0.37109375,-0.419270833,1,0,0,next_trial_button,0,49,49,3,1,beach,visiblesun,yesclouds,0,"1152.5122276567363,500",
,,,,,,,gr,gr,gr,f,56,,2021-09-01_14h53.26.832,online_experiment,2021.1.4,Win32,60.22645146,IwAR0owbEXnFZuJpsP7q7_94RrvXjxJWz0ldaPecwB1alGqxN_fTI_brkfZWg,FALSE,,"Mozilla/5.0 (Windows NT 10.0; Win64; x64) AppleWebKit/537.36 (KHTML, like Gecko) Chrome/92.0.4515.159 Safari/537.36",1366,625,1366,768,,,,,,,,6,1.5871,0.346354167,-0.459635417,1,0,0,next_trial_button,0,50,50,78,1,landscape,visiblesun,noclouds,9,"666.6666666666666,500",
,,,,,,,gr,gr,gr,f,56,,2021-09-01_14h53.26.832,online_experiment,2021.1.4,Win32,60.22645146,IwAR0owbEXnFZuJpsP7q7_94RrvXjxJWz0ldaPecwB1alGqxN_fTI_brkfZWg,FALSE,,"Mozilla/5.0 (Windows NT 10.0; Win64; x64) AppleWebKit/537.36 (KHTML, like Gecko) Chrome/92.0.4515.159 Safari/537.36",1366,625,1366,768,,,,,,,,6,1.7708,0.356770833,-0.440104167,1,0,0,next_trial_button,0,51,51,37,1,landscape,invisiblesun,yesclouds,4,"669.4214876033058,500",
,,,,,,,gr,gr,gr,f,56,,2021-09-01_14h53.26.832,online_experiment,2021.1.4,Win32,60.22645146,IwAR0owbEXnFZuJpsP7q7_94RrvXjxJWz0ldaPecwB1alGqxN_fTI_brkfZWg,FALSE,,"Mozilla/5.0 (Windows NT 10.0; Win64; x64) AppleWebKit/537.36 (KHTML, like Gecko) Chrome/92.0.4515.159 Safari/537.36",1366,625,1366,768,,,,,,,,8,1.9667,0.436197917,-0.428385417,1,0,0,next_trial_button,0,52,52,11,1,beach,visiblesun,yesclouds,1,"989.8132427843803,500",
,,,,,,,gr,gr,gr,f,56,,2021-09-01_14h53.26.832,online_experiment,2021.1.4,Win32,60.22645146,IwAR0owbEXnFZuJpsP7q7_94RrvXjxJWz0ldaPecwB1alGqxN_fTI_brkfZWg,FALSE,,"Mozilla/5.0 (Windows NT 10.0; Win64; x64) AppleWebKit/537.36 (KHTML, like Gecko) Chrome/92.0.4515.159 Safari/537.36",1366,625,1366,768,,,,,,,,5,2.1196,0.376302083,-0.39453125,1,0,0,next_trial_button,0,53,53,20,1,landscape,invisiblesun,noclouds,2,"755.192878338279,500",
,,,,,,,gr,gr,gr,f,56,,2021-09-01_14h53.26.832,online_experiment,2021.1.4,Win32,60.22645146,IwAR0owbEXnFZuJpsP7q7_94RrvXjxJWz0ldaPecwB1alGqxN_fTI_brkfZWg,FALSE,,"Mozilla/5.0 (Windows NT 10.0; Win64; x64) AppleWebKit/537.36 (KHTML, like Gecko) Chrome/92.0.4515.159 Safari/537.36",1366,625,1366,768,,,,,,,,7,1.7723,0.34765625,-0.428385417,1,0,0,next_trial_button,0,54,54,32,1,beach,invisiblesun,noclouds,4,"750,500",
,,,,,,,gr,gr,gr,f,56,,2021-09-01_14h53.26.832,online_experiment,2021.1.4,Win32,60.22645146,IwAR0owbEXnFZuJpsP7q7_94RrvXjxJWz0ldaPecwB1alGqxN_fTI_brkfZWg,FALSE,,"Mozilla/5.0 (Windows NT 10.0; Win64; x64) AppleWebKit/537.36 (KHTML, like Gecko) Chrome/92.0.4515.159 Safari/537.36",1366,625,1366,768,,,,,,,,6,1.5752,0.415364583,-0.404947917,1,0,0,next_trial_button,0,55,55,47,1,landscape,visiblesun,yesclouds,5,"666.6666666666666,500",
,,,,,,,gr,gr,gr,f,56,,2021-09-01_14h53.26.832,online_experiment,2021.1.4,Win32,60.22645146,IwAR0owbEXnFZuJpsP7q7_94RrvXjxJWz0ldaPecwB1alGqxN_fTI_brkfZWg,FALSE,,"Mozilla/5.0 (Windows NT 10.0; Win64; x64) AppleWebKit/537.36 (KHTML, like Gecko) Chrome/92.0.4515.159 Safari/537.36",1366,625,1366,768,,,,,,,,6,1.8667,0.375,-0.40625,1,0,0,next_trial_button,0,56,56,64,1,beach,invisiblesun,noclouds,8,"1028.5714285714284,500",
,,,,,,,gr,gr,gr,f,56,,2021-09-01_14h53.26.832,online_experiment,2021.1.4,Win32,60.22645146,IwAR0owbEXnFZuJpsP7q7_94RrvXjxJWz0ldaPecwB1alGqxN_fTI_brkfZWg,FALSE,,"Mozilla/5.0 (Windows NT 10.0; Win64; x64) AppleWebKit/537.36 (KHTML, like Gecko) Chrome/92.0.4515.159 Safari/537.36",1366,625,1366,768,,,,,,,,3,1.9339,0.397135417,-0.432291667,1,0,0,next_trial_button,0,57,57,60,1,landscape,invisiblesun,noclouds,7,"666.7268134247564,500",
,,,,,,,gr,gr,gr,f,56,,2021-09-01_14h53.26.832,online_experiment,2021.1.4,Win32,60.22645146,IwAR0owbEXnFZuJpsP7q7_94RrvXjxJWz0ldaPecwB1alGqxN_fTI_brkfZWg,FALSE,,"Mozilla/5.0 (Windows NT 10.0; Win64; x64) AppleWebKit/537.36 (KHTML, like Gecko) Chrome/92.0.4515.159 Safari/537.36",1366,625,1366,768,,,,,,,,8,1.8956,0.462239583,-0.421875,1,0,0,next_trial_button,0,58,58,56,1,beach,invisiblesun,noclouds,7,"1028.5714285714284,500",
,,,,,,,gr,gr,gr,f,56,,2021-09-01_14h53.26.832,online_experiment,2021.1.4,Win32,60.22645146,IwAR0owbEXnFZuJpsP7q7_94RrvXjxJWz0ldaPecwB1alGqxN_fTI_brkfZWg,FALSE,,"Mozilla/5.0 (Windows NT 10.0; Win64; x64) AppleWebKit/537.36 (KHTML, like Gecko) Chrome/92.0.4515.159 Safari/537.36",1366,625,1366,768,,,,,,,,8,1.9955,0.354166667,-0.436197917,1,0,0,next_trial_button,0,59,59,34,1,beach,visiblesun,noclouds,4,"749.6251874062968,500",
,,,,,,,gr,gr,gr,f,56,,2021-09-01_14h53.26.832,online_experiment,2021.1.4,Win32,60.22645146,IwAR0owbEXnFZuJpsP7q7_94RrvXjxJWz0ldaPecwB1alGqxN_fTI_brkfZWg,FALSE,,"Mozilla/5.0 (Windows NT 10.0; Win64; x64) AppleWebKit/537.36 (KHTML, like Gecko) Chrome/92.0.4515.159 Safari/537.36",1366,625,1366,768,,,,,,,,5,2.1397,0.37109375,-0.427083333,1,0,0,next_trial_button,0,60,60,36,1,landscape,invisiblesun,noclouds,4,"281.25,500",
,,,,,,,gr,gr,gr,f,56,,2021-09-01_14h53.26.832,online_experiment,2021.1.4,Win32,60.22645146,IwAR0owbEXnFZuJpsP7q7_94RrvXjxJWz0ldaPecwB1alGqxN_fTI_brkfZWg,FALSE,,"Mozilla/5.0 (Windows NT 10.0; Win64; x64) AppleWebKit/537.36 (KHTML, like Gecko) Chrome/92.0.4515.159 Safari/537.36",1366,625,1366,768,,,,,,,,6,2.0046,0.42578125,-0.3984375,1,0,0,next_trial_button,0,61,61,69,1,landscape,invisiblesun,yesclouds,8,"750,500",
,,,,,,,gr,gr,gr,f,56,,2021-09-01_14h53.26.832,online_experiment,2021.1.4,Win32,60.22645146,IwAR0owbEXnFZuJpsP7q7_94RrvXjxJWz0ldaPecwB1alGqxN_fTI_brkfZWg,FALSE,,"Mozilla/5.0 (Windows NT 10.0; Win64; x64) AppleWebKit/537.36 (KHTML, like Gecko) Chrome/92.0.4515.159 Safari/537.36",1366,625,1366,768,,,,,,,,8,1.7457,0.438802083,-0.415364583,1,0,0,next_trial_button,0,62,62,74,1,beach,visiblesun,noclouds,9,"1028.5714285714284,500",
,,,,,,,gr,gr,gr,f,56,,2021-09-01_14h53.26.832,online_experiment,2021.1.4,Win32,60.22645146,IwAR0owbEXnFZuJpsP7q7_94RrvXjxJWz0ldaPecwB1alGqxN_fTI_brkfZWg,FALSE,,"Mozilla/5.0 (Windows NT 10.0; Win64; x64) AppleWebKit/537.36 (KHTML, like Gecko) Chrome/92.0.4515.159 Safari/537.36",1366,625,1366,768,,,,,,,,7,1.7177,0.490885417,-0.41796875,1,0,0,next_trial_button,0,63,63,35,1,beach,visiblesun,yesclouds,4,"750,500",
,,,,,,,gr,gr,gr,f,56,,2021-09-01_14h53.26.832,online_experiment,2021.1.4,Win32,60.22645146,IwAR0owbEXnFZuJpsP7q7_94RrvXjxJWz0ldaPecwB1alGqxN_fTI_brkfZWg,FALSE,,"Mozilla/5.0 (Windows NT 10.0; Win64; x64) AppleWebKit/537.36 (KHTML, like Gecko) Chrome/92.0.4515.159 Safari/537.36",1366,625,1366,768,,,,,,,,8,2.0827,0.447916667,-0.42578125,1,0,0,next_trial_button,0,64,64,65,1,beach,invisiblesun,yesclouds,8,"750,500",
,,,,,,,gr,gr,gr,f,56,,2021-09-01_14h53.26.832,online_experiment,2021.1.4,Win32,60.22645146,IwAR0owbEXnFZuJpsP7q7_94RrvXjxJWz0ldaPecwB1alGqxN_fTI_brkfZWg,FALSE,,"Mozilla/5.0 (Windows NT 10.0; Win64; x64) AppleWebKit/537.36 (KHTML, like Gecko) Chrome/92.0.4515.159 Safari/537.36",1366,625,1366,768,,,,,,,,6,1.8504,0.338541667,-0.43359375,1,0,0,next_trial_button,0,65,65,79,1,landscape,visiblesun,yesclouds,9,"1028.5714285714284,500",
,,,,,,,gr,gr,gr,f,56,,2021-09-01_14h53.26.832,online_experiment,2021.1.4,Win32,60.22645146,IwAR0owbEXnFZuJpsP7q7_94RrvXjxJWz0ldaPecwB1alGqxN_fTI_brkfZWg,FALSE,,"Mozilla/5.0 (Windows NT 10.0; Win64; x64) AppleWebKit/537.36 (KHTML, like Gecko) Chrome/92.0.4515.159 Safari/537.36",1366,625,1366,768,,,,,,,,6,1.8425,0.348958333,-0.373697917,1,0,0,next_trial_button,0,66,66,23,1,landscape,visiblesun,yesclouds,2,"767.97829036635,500",
,,,,,,,gr,gr,gr,f,56,,2021-09-01_14h53.26.832,online_experiment,2021.1.4,Win32,60.22645146,IwAR0owbEXnFZuJpsP7q7_94RrvXjxJWz0ldaPecwB1alGqxN_fTI_brkfZWg,FALSE,,"Mozilla/5.0 (Windows NT 10.0; Win64; x64) AppleWebKit/537.36 (KHTML, like Gecko) Chrome/92.0.4515.159 Safari/537.36",1366,625,1366,768,,,,,,,,6,2.2048,0.352864583,-0.420572917,1,0,0,next_trial_button,0,67,67,76,1,landscape,invisiblesun,noclouds,9,"1056.6037735849056,500",
,,,,,,,gr,gr,gr,f,56,,2021-09-01_14h53.26.832,online_experiment,2021.1.4,Win32,60.22645146,IwAR0owbEXnFZuJpsP7q7_94RrvXjxJWz0ldaPecwB1alGqxN_fTI_brkfZWg,FALSE,,"Mozilla/5.0 (Windows NT 10.0; Win64; x64) AppleWebKit/537.36 (KHTML, like Gecko) Chrome/92.0.4515.159 Safari/537.36",1366,625,1366,768,,,,,,,,5,1.8511,0.3125,-0.408854167,1,0,0,next_trial_button,0,68,68,4,1,landscape,invisiblesun,noclouds,0,"1276.9171185127807,500",
,,,,,,,gr,gr,gr,f,56,,2021-09-01_14h53.26.832,online_experiment,2021.1.4,Win32,60.22645146,IwAR0owbEXnFZuJpsP7q7_94RrvXjxJWz0ldaPecwB1alGqxN_fTI_brkfZWg,FALSE,,"Mozilla/5.0 (Windows NT 10.0; Win64; x64) AppleWebKit/537.36 (KHTML, like Gecko) Chrome/92.0.4515.159 Safari/537.36",1366,625,1366,768,,,,,,,,7,2.4372,0.479166667,-0.419270833,1,0,0,next_trial_button,0,69,69,25,1,beach,invisiblesun,yesclouds,3,"750.4690431519699,500",
,,,,,,,gr,gr,gr,f,56,,2021-09-01_14h53.26.832,online_experiment,2021.1.4,Win32,60.22645146,IwAR0owbEXnFZuJpsP7q7_94RrvXjxJWz0ldaPecwB1alGqxN_fTI_brkfZWg,FALSE,,"Mozilla/5.0 (Windows NT 10.0; Win64; x64) AppleWebKit/537.36 (KHTML, like Gecko) Chrome/92.0.4515.159 Safari/537.36",1366,625,1366,768,,,,,,,,8,1.8639,0.421875,-0.421875,1,0,0,next_trial_button,0,70,70,66,1,beach,visiblesun,noclouds,8,"1028.5714285714284,500",
,,,,,,,gr,gr,gr,f,56,,2021-09-01_14h53.26.832,online_experiment,2021.1.4,Win32,60.22645146,IwAR0owbEXnFZuJpsP7q7_94RrvXjxJWz0ldaPecwB1alGqxN_fTI_brkfZWg,FALSE,,"Mozilla/5.0 (Windows NT 10.0; Win64; x64) AppleWebKit/537.36 (KHTML, like Gecko) Chrome/92.0.4515.159 Safari/537.36",1366,625,1366,768,,,,,,,,9,1.9131,0.44140625,-0.4296875,1,0,0,next_trial_button,0,71,71,26,1,beach,visiblesun,noclouds,3,"888.8888888888888,500",
,,,,,,,gr,gr,gr,f,56,,2021-09-01_14h53.26.832,online_experiment,2021.1.4,Win32,60.22645146,IwAR0owbEXnFZuJpsP7q7_94RrvXjxJWz0ldaPecwB1alGqxN_fTI_brkfZWg,FALSE,,"Mozilla/5.0 (Windows NT 10.0; Win64; x64) AppleWebKit/537.36 (KHTML, like Gecko) Chrome/92.0.4515.159 Safari/537.36",1366,625,1366,768,,,,,,,,9,1.6686,0.368489583,-0.4375,1,0,0,next_trial_button,0,72,72,41,1,beach,invisiblesun,yesclouds,5,"1248.4394506866417,500",
,,,,,,,gr,gr,gr,f,56,,2021-09-01_14h53.26.832,online_experiment,2021.1.4,Win32,60.22645146,IwAR0owbEXnFZuJpsP7q7_94RrvXjxJWz0ldaPecwB1alGqxN_fTI_brkfZWg,FALSE,,"Mozilla/5.0 (Windows NT 10.0; Win64; x64) AppleWebKit/537.36 (KHTML, like Gecko) Chrome/92.0.4515.159 Safari/537.36",1366,625,1366,768,,,,,,,,6,1.6508,0.325520833,-0.41796875,1,0,0,next_trial_button,0,73,73,52,1,landscape,invisiblesun,noclouds,6,"666.6666666666666,500",
,,,,,,,gr,gr,gr,f,56,,2021-09-01_14h53.26.832,online_experiment,2021.1.4,Win32,60.22645146,IwAR0owbEXnFZuJpsP7q7_94RrvXjxJWz0ldaPecwB1alGqxN_fTI_brkfZWg,FALSE,,"Mozilla/5.0 (Windows NT 10.0; Win64; x64) AppleWebKit/537.36 (KHTML, like Gecko) Chrome/92.0.4515.159 Safari/537.36",1366,625,1366,768,,,,,,,,8,1.5478,0.384114583,-0.42578125,1,0,0,next_trial_button,0,74,74,33,1,beach,invisiblesun,yesclouds,4,"751.5473032714411,500",
,,,,,,,gr,gr,gr,f,56,,2021-09-01_14h53.26.832,online_experiment,2021.1.4,Win32,60.22645146,IwAR0owbEXnFZuJpsP7q7_94RrvXjxJWz0ldaPecwB1alGqxN_fTI_brkfZWg,FALSE,,"Mozilla/5.0 (Windows NT 10.0; Win64; x64) AppleWebKit/537.36 (KHTML, like Gecko) Chrome/92.0.4515.159 Safari/537.36",1366,625,1366,768,,,,,,,,8,1.9407,0.31640625,-0.4296875,1,0,0,next_trial_button,0,75,75,19,1,beach,visiblesun,yesclouds,2,"770.1393095093882,500",
,,,,,,,gr,gr,gr,f,56,,2021-09-01_14h53.26.832,online_experiment,2021.1.4,Win32,60.22645146,IwAR0owbEXnFZuJpsP7q7_94RrvXjxJWz0ldaPecwB1alGqxN_fTI_brkfZWg,FALSE,,"Mozilla/5.0 (Windows NT 10.0; Win64; x64) AppleWebKit/537.36 (KHTML, like Gecko) Chrome/92.0.4515.159 Safari/537.36",1366,625,1366,768,,,,,,,,8,2.0029,0.36328125,-0.428385417,1,0,0,next_trial_button,0,76,76,39,1,landscape,visiblesun,yesclouds,4,"749.7656982193065,500",
,,,,,,,gr,gr,gr,f,56,,2021-09-01_14h53.26.832,online_experiment,2021.1.4,Win32,60.22645146,IwAR0owbEXnFZuJpsP7q7_94RrvXjxJWz0ldaPecwB1alGqxN_fTI_brkfZWg,FALSE,,"Mozilla/5.0 (Windows NT 10.0; Win64; x64) AppleWebKit/537.36 (KHTML, like Gecko) Chrome/92.0.4515.159 Safari/537.36",1366,625,1366,768,,,,,,,,7,1.8411,0.493489583,-0.411458333,1,0,0,next_trial_button,0,77,77,77,1,landscape,invisiblesun,yesclouds,9,"888.8888888888888,500",
,,,,,,,gr,gr,gr,f,56,,2021-09-01_14h53.26.832,online_experiment,2021.1.4,Win32,60.22645146,IwAR0owbEXnFZuJpsP7q7_94RrvXjxJWz0ldaPecwB1alGqxN_fTI_brkfZWg,FALSE,,"Mozilla/5.0 (Windows NT 10.0; Win64; x64) AppleWebKit/537.36 (KHTML, like Gecko) Chrome/92.0.4515.159 Safari/537.36",1366,625,1366,768,,,,,,,,8,1.6584,0.4296875,-0.403645833,1,0,0,next_trial_button,0,78,78,10,1,beach,visiblesun,noclouds,1,"747.0261697065821,500",
,,,,,,,gr,gr,gr,f,56,,2021-09-01_14h53.26.832,online_experiment,2021.1.4,Win32,60.22645146,IwAR0owbEXnFZuJpsP7q7_94RrvXjxJWz0ldaPecwB1alGqxN_fTI_brkfZWg,FALSE,,"Mozilla/5.0 (Windows NT 10.0; Win64; x64) AppleWebKit/537.36 (KHTML, like Gecko) Chrome/92.0.4515.159 Safari/537.36",1366,625,1366,768,,,,,,,,8,1.8296,0.440104167,-0.43359375,1,0,0,next_trial_button,0,79,79,9,1,beach,invisiblesun,yesclouds,1,"750,500",
,,,,,,,gr,gr,gr,f,56,,2021-09-01_14h53.26.832,online_experiment,2021.1.4,Win32,60.22645146,IwAR0owbEXnFZuJpsP7q7_94RrvXjxJWz0ldaPecwB1alGqxN_fTI_brkfZWg,FALSE,,"Mozilla/5.0 (Windows NT 10.0; Win64; x64) AppleWebKit/537.36 (KHTML, like Gecko) Chrome/92.0.4515.159 Safari/537.36",1366,625,1366,768,,,,,,,,,,,,,,,,,,,,,,,,,"750,500",555.0299
