language_mouse.x,language_mouse.y,language_mouse.leftButton,language_mouse.midButton,language_mouse.rightButton,language_mouse.time,language_mouse.clicked_name,nationality,mother_tongue,homeland,gender,age,email,date,expName,psychopyVersion,OS,frameRate,cancel_experiment,cancel_reasons,client_agent_information,windowWidth,windowHeight,xRes,yRes,start_exp_mouse.x,start_exp_mouse.y,start_exp_mouse.leftButton,start_exp_mouse.midButton,start_exp_mouse.rightButton,start_exp_mouse.time,start_exp_mouse.clicked_name,rating_slider.response,rating_slider.rt,next_trial_mouse.x,next_trial_mouse.y,next_trial_mouse.leftButton,next_trial_mouse.midButton,next_trial_mouse.rightButton,next_trial_mouse.clicked_name,trials.thisRepN,trials.thisTrialN,trials.thisN,trials.thisIndex,trials.ran,environment,sunVisibility,cloudVisibility,imageId,imgSize,globalClockTime
-0.44,-0.256666667,1,0,0,1.218,de_flag,de,other,de,m,26,,2021-08-07_12h29.20.382,online_experiment,2021.1.4,MacIntel,58.82352941,FALSE,,"Mozilla/5.0 (Macintosh; Intel Mac OS X 10_15_7) AppleWebKit/605.1.15 (KHTML, like Gecko) Version/14.1 Safari/605.1.15",1440,761,1440,900,,,,,,,,,,,,,,,,,,,,,,,,,,
,,,,,,,de,other,de,m,26,,2021-08-07_12h29.20.382,online_experiment,2021.1.4,MacIntel,58.82352941,FALSE,,"Mozilla/5.0 (Macintosh; Intel Mac OS X 10_15_7) AppleWebKit/605.1.15 (KHTML, like Gecko) Version/14.1 Safari/605.1.15",1440,761,1440,900,-0.022222222,-0.397777778,1,0,0,12.2,cont_gr,8,7.196,0.375555556,-0.413333333,1,0,0,next_trial_button,0,0,0,78,1,landscape,visiblesun,noclouds,9,"666.6666666666666,500",
,,,,,,,de,other,de,m,26,,2021-08-07_12h29.20.382,online_experiment,2021.1.4,MacIntel,58.82352941,FALSE,,"Mozilla/5.0 (Macintosh; Intel Mac OS X 10_15_7) AppleWebKit/605.1.15 (KHTML, like Gecko) Version/14.1 Safari/605.1.15",1440,761,1440,900,,,,,,,,10,1.67,0.332222222,-0.417777778,1,0,0,next_trial_button,0,1,1,29,1,landscape,invisiblesun,yesclouds,3,"749.8660953401178,500",
,,,,,,,de,other,de,m,26,,2021-08-07_12h29.20.382,online_experiment,2021.1.4,MacIntel,58.82352941,FALSE,,"Mozilla/5.0 (Macintosh; Intel Mac OS X 10_15_7) AppleWebKit/605.1.15 (KHTML, like Gecko) Version/14.1 Safari/605.1.15",1440,761,1440,900,,,,,,,,10,1.671,0.38,-0.417777778,1,0,0,next_trial_button,0,2,2,45,1,landscape,invisiblesun,yesclouds,5,"749.6251874062968,500",
,,,,,,,de,other,de,m,26,,2021-08-07_12h29.20.382,online_experiment,2021.1.4,MacIntel,58.82352941,FALSE,,"Mozilla/5.0 (Macintosh; Intel Mac OS X 10_15_7) AppleWebKit/605.1.15 (KHTML, like Gecko) Version/14.1 Safari/605.1.15",1440,761,1440,900,,,,,,,,10,1.939,0.43,-0.406666667,1,0,0,next_trial_button,0,3,3,26,1,beach,visiblesun,noclouds,3,"888.8888888888888,500",
,,,,,,,de,other,de,m,26,,2021-08-07_12h29.20.382,online_experiment,2021.1.4,MacIntel,58.82352941,FALSE,,"Mozilla/5.0 (Macintosh; Intel Mac OS X 10_15_7) AppleWebKit/605.1.15 (KHTML, like Gecko) Version/14.1 Safari/605.1.15",1440,761,1440,900,,,,,,,,10,1.606,0.42,-0.41,1,0,0,next_trial_button,0,4,4,6,1,landscape,visiblesun,noclouds,0,"1413.8005159071367,500",
,,,,,,,de,other,de,m,26,,2021-08-07_12h29.20.382,online_experiment,2021.1.4,MacIntel,58.82352941,FALSE,,"Mozilla/5.0 (Macintosh; Intel Mac OS X 10_15_7) AppleWebKit/605.1.15 (KHTML, like Gecko) Version/14.1 Safari/605.1.15",1440,761,1440,900,,,,,,,,10,2.289,0.478888889,-0.424444444,1,0,0,next_trial_button,0,5,5,34,1,beach,visiblesun,noclouds,4,"749.6251874062968,500",
,,,,,,,de,other,de,m,26,,2021-08-07_12h29.20.382,online_experiment,2021.1.4,MacIntel,58.82352941,FALSE,,"Mozilla/5.0 (Macintosh; Intel Mac OS X 10_15_7) AppleWebKit/605.1.15 (KHTML, like Gecko) Version/14.1 Safari/605.1.15",1440,761,1440,900,,,,,,,,10,1.56,0.497777778,-0.428888889,1,0,0,next_trial_button,0,6,6,11,1,beach,visiblesun,yesclouds,1,"989.8132427843803,500",
,,,,,,,de,other,de,m,26,,2021-08-07_12h29.20.382,online_experiment,2021.1.4,MacIntel,58.82352941,FALSE,,"Mozilla/5.0 (Macintosh; Intel Mac OS X 10_15_7) AppleWebKit/605.1.15 (KHTML, like Gecko) Version/14.1 Safari/605.1.15",1440,761,1440,900,,,,,,,,5,1.806,0.415555556,-0.442222222,1,0,0,next_trial_button,0,7,7,25,1,beach,invisiblesun,yesclouds,3,"750.4690431519699,500",
,,,,,,,de,other,de,m,26,,2021-08-07_12h29.20.382,online_experiment,2021.1.4,MacIntel,58.82352941,FALSE,,"Mozilla/5.0 (Macintosh; Intel Mac OS X 10_15_7) AppleWebKit/605.1.15 (KHTML, like Gecko) Version/14.1 Safari/605.1.15",1440,761,1440,900,,,,,,,,4,3.443,0.54,-0.416666667,1,0,0,next_trial_button,0,8,8,62,1,landscape,visiblesun,noclouds,7,"417.42389822807814,500",
,,,,,,,de,other,de,m,26,,2021-08-07_12h29.20.382,online_experiment,2021.1.4,MacIntel,58.82352941,FALSE,,"Mozilla/5.0 (Macintosh; Intel Mac OS X 10_15_7) AppleWebKit/605.1.15 (KHTML, like Gecko) Version/14.1 Safari/605.1.15",1440,761,1440,900,,,,,,,,5,2.737,0.455555556,-0.418888889,1,0,0,next_trial_button,0,9,9,2,1,beach,visiblesun,noclouds,0,"375,500",
,,,,,,,de,other,de,m,26,,2021-08-07_12h29.20.382,online_experiment,2021.1.4,MacIntel,58.82352941,FALSE,,"Mozilla/5.0 (Macintosh; Intel Mac OS X 10_15_7) AppleWebKit/605.1.15 (KHTML, like Gecko) Version/14.1 Safari/605.1.15",1440,761,1440,900,,,,,,,,1,2.765,0.481111111,-0.407777778,1,0,0,next_trial_button,0,10,10,28,1,landscape,invisiblesun,noclouds,3,"888.8888888888888,500",
,,,,,,,de,other,de,m,26,,2021-08-07_12h29.20.382,online_experiment,2021.1.4,MacIntel,58.82352941,FALSE,,"Mozilla/5.0 (Macintosh; Intel Mac OS X 10_15_7) AppleWebKit/605.1.15 (KHTML, like Gecko) Version/14.1 Safari/605.1.15",1440,761,1440,900,,,,,,,,6,2.826,0.404444444,-0.407777778,1,0,0,next_trial_button,0,11,11,1,1,beach,invisiblesun,yesclouds,0,"666.6666666666666,500",
,,,,,,,de,other,de,m,26,,2021-08-07_12h29.20.382,online_experiment,2021.1.4,MacIntel,58.82352941,FALSE,,"Mozilla/5.0 (Macintosh; Intel Mac OS X 10_15_7) AppleWebKit/605.1.15 (KHTML, like Gecko) Version/14.1 Safari/605.1.15",1440,761,1440,900,,,,,,,,7,1.892,0.372222222,-0.425555556,1,0,0,next_trial_button,0,12,12,65,1,beach,invisiblesun,yesclouds,8,"750,500",
,,,,,,,de,other,de,m,26,,2021-08-07_12h29.20.382,online_experiment,2021.1.4,MacIntel,58.82352941,FALSE,,"Mozilla/5.0 (Macintosh; Intel Mac OS X 10_15_7) AppleWebKit/605.1.15 (KHTML, like Gecko) Version/14.1 Safari/605.1.15",1440,761,1440,900,,,,,,,,7,1.475,0.306666667,-0.41,1,0,0,next_trial_button,0,13,13,24,1,beach,invisiblesun,noclouds,3,"750.089190153407,500",
,,,,,,,de,other,de,m,26,,2021-08-07_12h29.20.382,online_experiment,2021.1.4,MacIntel,58.82352941,FALSE,,"Mozilla/5.0 (Macintosh; Intel Mac OS X 10_15_7) AppleWebKit/605.1.15 (KHTML, like Gecko) Version/14.1 Safari/605.1.15",1440,761,1440,900,,,,,,,,7,1.829,0.43,-0.41,1,0,0,next_trial_button,0,14,14,41,1,beach,invisiblesun,yesclouds,5,"1248.4394506866417,500",
,,,,,,,de,other,de,m,26,,2021-08-07_12h29.20.382,online_experiment,2021.1.4,MacIntel,58.82352941,FALSE,,"Mozilla/5.0 (Macintosh; Intel Mac OS X 10_15_7) AppleWebKit/605.1.15 (KHTML, like Gecko) Version/14.1 Safari/605.1.15",1440,761,1440,900,,,,,,,,6,2.046,0.328888889,-0.423333333,1,0,0,next_trial_button,0,15,15,74,1,beach,visiblesun,noclouds,9,"1028.5714285714284,500",
,,,,,,,de,other,de,m,26,,2021-08-07_12h29.20.382,online_experiment,2021.1.4,MacIntel,58.82352941,FALSE,,"Mozilla/5.0 (Macintosh; Intel Mac OS X 10_15_7) AppleWebKit/605.1.15 (KHTML, like Gecko) Version/14.1 Safari/605.1.15",1440,761,1440,900,,,,,,,,5,2.462,0.473333333,-0.4,1,0,0,next_trial_button,0,16,16,22,1,landscape,visiblesun,noclouds,2,"749.3333333333333,500",
,,,,,,,de,other,de,m,26,,2021-08-07_12h29.20.382,online_experiment,2021.1.4,MacIntel,58.82352941,FALSE,,"Mozilla/5.0 (Macintosh; Intel Mac OS X 10_15_7) AppleWebKit/605.1.15 (KHTML, like Gecko) Version/14.1 Safari/605.1.15",1440,761,1440,900,,,,,,,,2,2.361,0.446666667,-0.421111111,1,0,0,next_trial_button,0,17,17,36,1,landscape,invisiblesun,noclouds,4,"281.25,500",
,,,,,,,de,other,de,m,26,,2021-08-07_12h29.20.382,online_experiment,2021.1.4,MacIntel,58.82352941,FALSE,,"Mozilla/5.0 (Macintosh; Intel Mac OS X 10_15_7) AppleWebKit/605.1.15 (KHTML, like Gecko) Version/14.1 Safari/605.1.15",1440,761,1440,900,,,,,,,,1,3.077,0.534444444,-0.422222222,1,0,0,next_trial_button,0,18,18,79,1,landscape,visiblesun,yesclouds,9,"1028.5714285714284,500",
,,,,,,,de,other,de,m,26,,2021-08-07_12h29.20.382,online_experiment,2021.1.4,MacIntel,58.82352941,FALSE,,"Mozilla/5.0 (Macintosh; Intel Mac OS X 10_15_7) AppleWebKit/605.1.15 (KHTML, like Gecko) Version/14.1 Safari/605.1.15",1440,761,1440,900,,,,,,,,2,3.037,0.414444444,-0.422222222,1,0,0,next_trial_button,0,19,19,52,1,landscape,invisiblesun,noclouds,6,"666.6666666666666,500",
,,,,,,,de,other,de,m,26,,2021-08-07_12h29.20.382,online_experiment,2021.1.4,MacIntel,58.82352941,FALSE,,"Mozilla/5.0 (Macintosh; Intel Mac OS X 10_15_7) AppleWebKit/605.1.15 (KHTML, like Gecko) Version/14.1 Safari/605.1.15",1440,761,1440,900,,,,,,,,2,1.565,0.306666667,-0.415555556,1,0,0,next_trial_button,0,20,20,63,1,landscape,visiblesun,yesclouds,7,"331.94444444444446,500",
,,,,,,,de,other,de,m,26,,2021-08-07_12h29.20.382,online_experiment,2021.1.4,MacIntel,58.82352941,FALSE,,"Mozilla/5.0 (Macintosh; Intel Mac OS X 10_15_7) AppleWebKit/605.1.15 (KHTML, like Gecko) Version/14.1 Safari/605.1.15",1440,761,1440,900,,,,,,,,5,1.605,0.434444444,-0.388888889,1,0,0,next_trial_button,0,21,21,18,1,beach,visiblesun,noclouds,2,"666.6666666666666,500",
,,,,,,,de,other,de,m,26,,2021-08-07_12h29.20.382,online_experiment,2021.1.4,MacIntel,58.82352941,FALSE,,"Mozilla/5.0 (Macintosh; Intel Mac OS X 10_15_7) AppleWebKit/605.1.15 (KHTML, like Gecko) Version/14.1 Safari/605.1.15",1440,761,1440,900,,,,,,,,5,1.588,0.527777778,-0.402222222,1,0,0,next_trial_button,0,22,22,16,1,beach,invisiblesun,noclouds,2,"752.8089887640449,500",
,,,,,,,de,other,de,m,26,,2021-08-07_12h29.20.382,online_experiment,2021.1.4,MacIntel,58.82352941,FALSE,,"Mozilla/5.0 (Macintosh; Intel Mac OS X 10_15_7) AppleWebKit/605.1.15 (KHTML, like Gecko) Version/14.1 Safari/605.1.15",1440,761,1440,900,,,,,,,,5,1.617,0.473333333,-0.382222222,1,0,0,next_trial_button,0,23,23,49,1,beach,invisiblesun,yesclouds,6,"858.4474885844749,500",
,,,,,,,de,other,de,m,26,,2021-08-07_12h29.20.382,online_experiment,2021.1.4,MacIntel,58.82352941,FALSE,,"Mozilla/5.0 (Macintosh; Intel Mac OS X 10_15_7) AppleWebKit/605.1.15 (KHTML, like Gecko) Version/14.1 Safari/605.1.15",1440,761,1440,900,,,,,,,,5,1.524,0.483333333,-0.402222222,1,0,0,next_trial_button,0,24,24,43,1,beach,visiblesun,yesclouds,5,"750,500",
,,,,,,,de,other,de,m,26,,2021-08-07_12h29.20.382,online_experiment,2021.1.4,MacIntel,58.82352941,FALSE,,"Mozilla/5.0 (Macintosh; Intel Mac OS X 10_15_7) AppleWebKit/605.1.15 (KHTML, like Gecko) Version/14.1 Safari/605.1.15",1440,761,1440,900,,,,,,,,2,3.171,0.432222222,-0.392222222,1,0,0,next_trial_button,0,25,25,71,1,landscape,visiblesun,yesclouds,8,"666.6666666666666,500",
,,,,,,,de,other,de,m,26,,2021-08-07_12h29.20.382,online_experiment,2021.1.4,MacIntel,58.82352941,FALSE,,"Mozilla/5.0 (Macintosh; Intel Mac OS X 10_15_7) AppleWebKit/605.1.15 (KHTML, like Gecko) Version/14.1 Safari/605.1.15",1440,761,1440,900,,,,,,,,5,1.827,0.506666667,-0.405555556,1,0,0,next_trial_button,0,26,26,17,1,beach,invisiblesun,yesclouds,2,"684.8635235732011,500",
,,,,,,,de,other,de,m,26,,2021-08-07_12h29.20.382,online_experiment,2021.1.4,MacIntel,58.82352941,FALSE,,"Mozilla/5.0 (Macintosh; Intel Mac OS X 10_15_7) AppleWebKit/605.1.15 (KHTML, like Gecko) Version/14.1 Safari/605.1.15",1440,761,1440,900,,,,,,,,5,1.853,0.348888889,-0.412222222,1,0,0,next_trial_button,0,27,27,15,1,landscape,visiblesun,yesclouds,1,"333.3333333333333,500",
,,,,,,,de,other,de,m,26,,2021-08-07_12h29.20.382,online_experiment,2021.1.4,MacIntel,58.82352941,FALSE,,"Mozilla/5.0 (Macintosh; Intel Mac OS X 10_15_7) AppleWebKit/605.1.15 (KHTML, like Gecko) Version/14.1 Safari/605.1.15",1440,761,1440,900,,,,,,,,1,1.644,0.498888889,-0.401111111,1,0,0,next_trial_button,0,28,28,30,1,landscape,visiblesun,noclouds,3,"346.3035019455253,500",
,,,,,,,de,other,de,m,26,,2021-08-07_12h29.20.382,online_experiment,2021.1.4,MacIntel,58.82352941,FALSE,,"Mozilla/5.0 (Macintosh; Intel Mac OS X 10_15_7) AppleWebKit/605.1.15 (KHTML, like Gecko) Version/14.1 Safari/605.1.15",1440,761,1440,900,,,,,,,,5,1.496,0.448888889,-0.402222222,1,0,0,next_trial_button,0,29,29,10,1,beach,visiblesun,noclouds,1,"747.0261697065821,500",
,,,,,,,de,other,de,m,26,,2021-08-07_12h29.20.382,online_experiment,2021.1.4,MacIntel,58.82352941,FALSE,,"Mozilla/5.0 (Macintosh; Intel Mac OS X 10_15_7) AppleWebKit/605.1.15 (KHTML, like Gecko) Version/14.1 Safari/605.1.15",1440,761,1440,900,,,,,,,,3,2.138,0.373333333,-0.403333333,1,0,0,next_trial_button,0,30,30,38,1,landscape,visiblesun,noclouds,4,"733.3333333333333,500",
,,,,,,,de,other,de,m,26,,2021-08-07_12h29.20.382,online_experiment,2021.1.4,MacIntel,58.82352941,FALSE,,"Mozilla/5.0 (Macintosh; Intel Mac OS X 10_15_7) AppleWebKit/605.1.15 (KHTML, like Gecko) Version/14.1 Safari/605.1.15",1440,761,1440,900,,,,,,,,4,1.847,0.342222222,-0.423333333,1,0,0,next_trial_button,0,31,31,42,1,beach,visiblesun,noclouds,5,"834.4594594594595,500",
,,,,,,,de,other,de,m,26,,2021-08-07_12h29.20.382,online_experiment,2021.1.4,MacIntel,58.82352941,FALSE,,"Mozilla/5.0 (Macintosh; Intel Mac OS X 10_15_7) AppleWebKit/605.1.15 (KHTML, like Gecko) Version/14.1 Safari/605.1.15",1440,761,1440,900,,,,,,,,5,1.474,0.466666667,-0.418888889,1,0,0,next_trial_button,0,32,32,66,1,beach,visiblesun,noclouds,8,"1028.5714285714284,500",
,,,,,,,de,other,de,m,26,,2021-08-07_12h29.20.382,online_experiment,2021.1.4,MacIntel,58.82352941,FALSE,,"Mozilla/5.0 (Macintosh; Intel Mac OS X 10_15_7) AppleWebKit/605.1.15 (KHTML, like Gecko) Version/14.1 Safari/605.1.15",1440,761,1440,900,,,,,,,,3,1.513,0.313333333,-0.421111111,1,0,0,next_trial_button,0,33,33,59,1,beach,visiblesun,yesclouds,7,"888.9689978370584,500",
,,,,,,,de,other,de,m,26,,2021-08-07_12h29.20.382,online_experiment,2021.1.4,MacIntel,58.82352941,FALSE,,"Mozilla/5.0 (Macintosh; Intel Mac OS X 10_15_7) AppleWebKit/605.1.15 (KHTML, like Gecko) Version/14.1 Safari/605.1.15",1440,761,1440,900,,,,,,,,6,1.506,0.516666667,-0.423333333,1,0,0,next_trial_button,0,34,34,50,1,beach,visiblesun,noclouds,6,"666.6666666666666,500",
,,,,,,,de,other,de,m,26,,2021-08-07_12h29.20.382,online_experiment,2021.1.4,MacIntel,58.82352941,FALSE,,"Mozilla/5.0 (Macintosh; Intel Mac OS X 10_15_7) AppleWebKit/605.1.15 (KHTML, like Gecko) Version/14.1 Safari/605.1.15",1440,761,1440,900,,,,,,,,3,1.798,0.366666667,-0.396666667,1,0,0,next_trial_button,0,35,35,14,1,landscape,visiblesun,noclouds,1,"745.9919839679359,500",
,,,,,,,de,other,de,m,26,,2021-08-07_12h29.20.382,online_experiment,2021.1.4,MacIntel,58.82352941,FALSE,,"Mozilla/5.0 (Macintosh; Intel Mac OS X 10_15_7) AppleWebKit/605.1.15 (KHTML, like Gecko) Version/14.1 Safari/605.1.15",1440,761,1440,900,,,,,,,,3,1.606,0.507777778,-0.424444444,1,0,0,next_trial_button,0,36,36,13,1,landscape,invisiblesun,yesclouds,1,"783.1192660550458,500",
,,,,,,,de,other,de,m,26,,2021-08-07_12h29.20.382,online_experiment,2021.1.4,MacIntel,58.82352941,FALSE,,"Mozilla/5.0 (Macintosh; Intel Mac OS X 10_15_7) AppleWebKit/605.1.15 (KHTML, like Gecko) Version/14.1 Safari/605.1.15",1440,761,1440,900,,,,,,,,4,1.572,0.362222222,-0.425555556,1,0,0,next_trial_button,0,37,37,35,1,beach,visiblesun,yesclouds,4,"750,500",
,,,,,,,de,other,de,m,26,,2021-08-07_12h29.20.382,online_experiment,2021.1.4,MacIntel,58.82352941,FALSE,,"Mozilla/5.0 (Macintosh; Intel Mac OS X 10_15_7) AppleWebKit/605.1.15 (KHTML, like Gecko) Version/14.1 Safari/605.1.15",1440,761,1440,900,,,,,,,,5,3.246,0.451111111,-0.391111111,1,0,0,next_trial_button,0,38,38,48,1,beach,invisiblesun,noclouds,6,"1028.5714285714284,500",
,,,,,,,de,other,de,m,26,,2021-08-07_12h29.20.382,online_experiment,2021.1.4,MacIntel,58.82352941,FALSE,,"Mozilla/5.0 (Macintosh; Intel Mac OS X 10_15_7) AppleWebKit/605.1.15 (KHTML, like Gecko) Version/14.1 Safari/605.1.15",1440,761,1440,900,,,,,,,,5,2.156,0.321111111,-0.415555556,1,0,0,next_trial_button,0,39,39,4,1,landscape,invisiblesun,noclouds,0,"1276.9171185127807,500",
,,,,,,,de,other,de,m,26,,2021-08-07_12h29.20.382,online_experiment,2021.1.4,MacIntel,58.82352941,FALSE,,"Mozilla/5.0 (Macintosh; Intel Mac OS X 10_15_7) AppleWebKit/605.1.15 (KHTML, like Gecko) Version/14.1 Safari/605.1.15",1440,761,1440,900,,,,,,,,6,1.68,0.427777778,-0.416666667,1,0,0,next_trial_button,0,40,40,61,1,landscape,invisiblesun,yesclouds,7,"500,500",
,,,,,,,de,other,de,m,26,,2021-08-07_12h29.20.382,online_experiment,2021.1.4,MacIntel,58.82352941,FALSE,,"Mozilla/5.0 (Macintosh; Intel Mac OS X 10_15_7) AppleWebKit/605.1.15 (KHTML, like Gecko) Version/14.1 Safari/605.1.15",1440,761,1440,900,,,,,,,,5,1.707,0.471111111,-0.422222222,1,0,0,next_trial_button,0,41,41,40,1,beach,invisiblesun,noclouds,5,"1028.5714285714284,500",
,,,,,,,de,other,de,m,26,,2021-08-07_12h29.20.382,online_experiment,2021.1.4,MacIntel,58.82352941,FALSE,,"Mozilla/5.0 (Macintosh; Intel Mac OS X 10_15_7) AppleWebKit/605.1.15 (KHTML, like Gecko) Version/14.1 Safari/605.1.15",1440,761,1440,900,,,,,,,,5,1.556,0.332222222,-0.4,1,0,0,next_trial_button,0,42,42,46,1,landscape,visiblesun,noclouds,5,"750,500",
,,,,,,,de,other,de,m,26,,2021-08-07_12h29.20.382,online_experiment,2021.1.4,MacIntel,58.82352941,FALSE,,"Mozilla/5.0 (Macintosh; Intel Mac OS X 10_15_7) AppleWebKit/605.1.15 (KHTML, like Gecko) Version/14.1 Safari/605.1.15",1440,761,1440,900,,,,,,,,5,2.222,0.315555556,-0.407777778,1,0,0,next_trial_button,0,43,43,47,1,landscape,visiblesun,yesclouds,5,"666.6666666666666,500",
,,,,,,,de,other,de,m,26,,2021-08-07_12h29.20.382,online_experiment,2021.1.4,MacIntel,58.82352941,FALSE,,"Mozilla/5.0 (Macintosh; Intel Mac OS X 10_15_7) AppleWebKit/605.1.15 (KHTML, like Gecko) Version/14.1 Safari/605.1.15",1440,761,1440,900,,,,,,,,3,1.556,0.312222222,-0.394444444,1,0,0,next_trial_button,0,44,44,12,1,landscape,invisiblesun,noclouds,1,"666.6666666666666,500",
,,,,,,,de,other,de,m,26,,2021-08-07_12h29.20.382,online_experiment,2021.1.4,MacIntel,58.82352941,FALSE,,"Mozilla/5.0 (Macintosh; Intel Mac OS X 10_15_7) AppleWebKit/605.1.15 (KHTML, like Gecko) Version/14.1 Safari/605.1.15",1440,761,1440,900,,,,,,,,3,1.446,0.515555556,-0.4,1,0,0,next_trial_button,0,45,45,32,1,beach,invisiblesun,noclouds,4,"750,500",
,,,,,,,de,other,de,m,26,,2021-08-07_12h29.20.382,online_experiment,2021.1.4,MacIntel,58.82352941,FALSE,,"Mozilla/5.0 (Macintosh; Intel Mac OS X 10_15_7) AppleWebKit/605.1.15 (KHTML, like Gecko) Version/14.1 Safari/605.1.15",1440,761,1440,900,,,,,,,,5,1.807,0.528888889,-0.384444444,1,0,0,next_trial_button,0,46,46,75,1,beach,visiblesun,yesclouds,9,"1029.6010296010297,500",
,,,,,,,de,other,de,m,26,,2021-08-07_12h29.20.382,online_experiment,2021.1.4,MacIntel,58.82352941,FALSE,,"Mozilla/5.0 (Macintosh; Intel Mac OS X 10_15_7) AppleWebKit/605.1.15 (KHTML, like Gecko) Version/14.1 Safari/605.1.15",1440,761,1440,900,,,,,,,,6,2.595,0.38,-0.415555556,1,0,0,next_trial_button,0,47,47,20,1,landscape,invisiblesun,noclouds,2,"755.192878338279,500",
,,,,,,,de,other,de,m,26,,2021-08-07_12h29.20.382,online_experiment,2021.1.4,MacIntel,58.82352941,FALSE,,"Mozilla/5.0 (Macintosh; Intel Mac OS X 10_15_7) AppleWebKit/605.1.15 (KHTML, like Gecko) Version/14.1 Safari/605.1.15",1440,761,1440,900,,,,,,,,4,1.706,0.334444444,-0.408888889,1,0,0,next_trial_button,0,48,48,55,1,landscape,visiblesun,yesclouds,6,"749.8819083608881,500",
,,,,,,,de,other,de,m,26,,2021-08-07_12h29.20.382,online_experiment,2021.1.4,MacIntel,58.82352941,FALSE,,"Mozilla/5.0 (Macintosh; Intel Mac OS X 10_15_7) AppleWebKit/605.1.15 (KHTML, like Gecko) Version/14.1 Safari/605.1.15",1440,761,1440,900,,,,,,,,5,1.413,0.544444444,-0.396666667,1,0,0,next_trial_button,0,49,49,31,1,landscape,visiblesun,yesclouds,3,"638.0622837370242,500",
,,,,,,,de,other,de,m,26,,2021-08-07_12h29.20.382,online_experiment,2021.1.4,MacIntel,58.82352941,FALSE,,"Mozilla/5.0 (Macintosh; Intel Mac OS X 10_15_7) AppleWebKit/605.1.15 (KHTML, like Gecko) Version/14.1 Safari/605.1.15",1440,761,1440,900,,,,,,,,5,1.491,0.387777778,-0.414444444,1,0,0,next_trial_button,0,50,50,3,1,beach,visiblesun,yesclouds,0,"1152.5122276567363,500",
,,,,,,,de,other,de,m,26,,2021-08-07_12h29.20.382,online_experiment,2021.1.4,MacIntel,58.82352941,FALSE,,"Mozilla/5.0 (Macintosh; Intel Mac OS X 10_15_7) AppleWebKit/605.1.15 (KHTML, like Gecko) Version/14.1 Safari/605.1.15",1440,761,1440,900,,,,,,,,5,1.422,0.503333333,-0.386666667,1,0,0,next_trial_button,0,51,51,7,1,landscape,visiblesun,yesclouds,0,"743.421052631579,500",
,,,,,,,de,other,de,m,26,,2021-08-07_12h29.20.382,online_experiment,2021.1.4,MacIntel,58.82352941,FALSE,,"Mozilla/5.0 (Macintosh; Intel Mac OS X 10_15_7) AppleWebKit/605.1.15 (KHTML, like Gecko) Version/14.1 Safari/605.1.15",1440,761,1440,900,,,,,,,,5,1.405,0.391111111,-0.403333333,1,0,0,next_trial_button,0,52,52,53,1,landscape,invisiblesun,yesclouds,6,"750.0695023630803,500",
,,,,,,,de,other,de,m,26,,2021-08-07_12h29.20.382,online_experiment,2021.1.4,MacIntel,58.82352941,FALSE,,"Mozilla/5.0 (Macintosh; Intel Mac OS X 10_15_7) AppleWebKit/605.1.15 (KHTML, like Gecko) Version/14.1 Safari/605.1.15",1440,761,1440,900,,,,,,,,8,1.716,0.397777778,-0.396666667,1,0,0,next_trial_button,0,53,53,51,1,beach,visiblesun,yesclouds,6,"657.1279916753382,500",
,,,,,,,de,other,de,m,26,,2021-08-07_12h29.20.382,online_experiment,2021.1.4,MacIntel,58.82352941,FALSE,,"Mozilla/5.0 (Macintosh; Intel Mac OS X 10_15_7) AppleWebKit/605.1.15 (KHTML, like Gecko) Version/14.1 Safari/605.1.15",1440,761,1440,900,,,,,,,,1,1.621,0.415555556,-0.393333333,1,0,0,next_trial_button,0,54,54,76,1,landscape,invisiblesun,noclouds,9,"1056.6037735849056,500",
,,,,,,,de,other,de,m,26,,2021-08-07_12h29.20.382,online_experiment,2021.1.4,MacIntel,58.82352941,FALSE,,"Mozilla/5.0 (Macintosh; Intel Mac OS X 10_15_7) AppleWebKit/605.1.15 (KHTML, like Gecko) Version/14.1 Safari/605.1.15",1440,761,1440,900,,,,,,,,2,1.621,0.471111111,-0.398888889,1,0,0,next_trial_button,0,55,55,72,1,beach,invisiblesun,noclouds,9,"888.8888888888888,500",
,,,,,,,de,other,de,m,26,,2021-08-07_12h29.20.382,online_experiment,2021.1.4,MacIntel,58.82352941,FALSE,,"Mozilla/5.0 (Macintosh; Intel Mac OS X 10_15_7) AppleWebKit/605.1.15 (KHTML, like Gecko) Version/14.1 Safari/605.1.15",1440,761,1440,900,,,,,,,,1,1.655,0.437777778,-0.405555556,1,0,0,next_trial_button,0,56,56,68,1,landscape,invisiblesun,noclouds,8,"666.6666666666666,500",
,,,,,,,de,other,de,m,26,,2021-08-07_12h29.20.382,online_experiment,2021.1.4,MacIntel,58.82352941,FALSE,,"Mozilla/5.0 (Macintosh; Intel Mac OS X 10_15_7) AppleWebKit/605.1.15 (KHTML, like Gecko) Version/14.1 Safari/605.1.15",1440,761,1440,900,,,,,,,,1,1.555,0.344444444,-0.412222222,1,0,0,next_trial_button,0,57,57,77,1,landscape,invisiblesun,yesclouds,9,"888.8888888888888,500",
,,,,,,,de,other,de,m,26,,2021-08-07_12h29.20.382,online_experiment,2021.1.4,MacIntel,58.82352941,FALSE,,"Mozilla/5.0 (Macintosh; Intel Mac OS X 10_15_7) AppleWebKit/605.1.15 (KHTML, like Gecko) Version/14.1 Safari/605.1.15",1440,761,1440,900,,,,,,,,10,2.753,0.451111111,-0.415555556,1,0,0,next_trial_button,0,58,58,33,1,beach,invisiblesun,yesclouds,4,"751.5473032714411,500",
,,,,,,,de,other,de,m,26,,2021-08-07_12h29.20.382,online_experiment,2021.1.4,MacIntel,58.82352941,FALSE,,"Mozilla/5.0 (Macintosh; Intel Mac OS X 10_15_7) AppleWebKit/605.1.15 (KHTML, like Gecko) Version/14.1 Safari/605.1.15",1440,761,1440,900,,,,,,,,7,3.712,0.326666667,-0.42,1,0,0,next_trial_button,0,59,59,0,1,beach,invisiblesun,noclouds,0,"750,500",
,,,,,,,de,other,de,m,26,,2021-08-07_12h29.20.382,online_experiment,2021.1.4,MacIntel,58.82352941,FALSE,,"Mozilla/5.0 (Macintosh; Intel Mac OS X 10_15_7) AppleWebKit/605.1.15 (KHTML, like Gecko) Version/14.1 Safari/605.1.15",1440,761,1440,900,,,,,,,,2,2.463,0.451111111,-0.421111111,1,0,0,next_trial_button,0,60,60,69,1,landscape,invisiblesun,yesclouds,8,"750,500",
,,,,,,,de,other,de,m,26,,2021-08-07_12h29.20.382,online_experiment,2021.1.4,MacIntel,58.82352941,FALSE,,"Mozilla/5.0 (Macintosh; Intel Mac OS X 10_15_7) AppleWebKit/605.1.15 (KHTML, like Gecko) Version/14.1 Safari/605.1.15",1440,761,1440,900,,,,,,,,1,1.748,0.476666667,-0.407777778,1,0,0,next_trial_button,0,61,61,60,1,landscape,invisiblesun,noclouds,7,"666.7268134247564,500",
,,,,,,,de,other,de,m,26,,2021-08-07_12h29.20.382,online_experiment,2021.1.4,MacIntel,58.82352941,FALSE,,"Mozilla/5.0 (Macintosh; Intel Mac OS X 10_15_7) AppleWebKit/605.1.15 (KHTML, like Gecko) Version/14.1 Safari/605.1.15",1440,761,1440,900,,,,,,,,5,1.471,0.407777778,-0.42,1,0,0,next_trial_button,0,62,62,73,1,beach,invisiblesun,yesclouds,9,"1028.5714285714284,500",
,,,,,,,de,other,de,m,26,,2021-08-07_12h29.20.382,online_experiment,2021.1.4,MacIntel,58.82352941,FALSE,,"Mozilla/5.0 (Macintosh; Intel Mac OS X 10_15_7) AppleWebKit/605.1.15 (KHTML, like Gecko) Version/14.1 Safari/605.1.15",1440,761,1440,900,,,,,,,,5,1.391,0.306666667,-0.397777778,1,0,0,next_trial_button,0,63,63,19,1,beach,visiblesun,yesclouds,2,"770.1393095093882,500",
,,,,,,,de,other,de,m,26,,2021-08-07_12h29.20.382,online_experiment,2021.1.4,MacIntel,58.82352941,FALSE,,"Mozilla/5.0 (Macintosh; Intel Mac OS X 10_15_7) AppleWebKit/605.1.15 (KHTML, like Gecko) Version/14.1 Safari/605.1.15",1440,761,1440,900,,,,,,,,5,1.489,0.327777778,-0.395555556,1,0,0,next_trial_button,0,64,64,5,1,landscape,invisiblesun,yesclouds,0,"750.4690431519699,500",
,,,,,,,de,other,de,m,26,,2021-08-07_12h29.20.382,online_experiment,2021.1.4,MacIntel,58.82352941,FALSE,,"Mozilla/5.0 (Macintosh; Intel Mac OS X 10_15_7) AppleWebKit/605.1.15 (KHTML, like Gecko) Version/14.1 Safari/605.1.15",1440,761,1440,900,,,,,,,,5,2.723,0.462222222,-0.404444444,1,0,0,next_trial_button,0,65,65,67,1,beach,visiblesun,yesclouds,8,"748.1481481481482,500",
,,,,,,,de,other,de,m,26,,2021-08-07_12h29.20.382,online_experiment,2021.1.4,MacIntel,58.82352941,FALSE,,"Mozilla/5.0 (Macintosh; Intel Mac OS X 10_15_7) AppleWebKit/605.1.15 (KHTML, like Gecko) Version/14.1 Safari/605.1.15",1440,761,1440,900,,,,,,,,5,1.571,0.303333333,-0.402222222,1,0,0,next_trial_button,0,66,66,56,1,beach,invisiblesun,noclouds,7,"1028.5714285714284,500",
,,,,,,,de,other,de,m,26,,2021-08-07_12h29.20.382,online_experiment,2021.1.4,MacIntel,58.82352941,FALSE,,"Mozilla/5.0 (Macintosh; Intel Mac OS X 10_15_7) AppleWebKit/605.1.15 (KHTML, like Gecko) Version/14.1 Safari/605.1.15",1440,761,1440,900,,,,,,,,4,2.039,0.478888889,-0.408888889,1,0,0,next_trial_button,0,67,67,54,1,landscape,visiblesun,noclouds,6,"695.0043821209465,500",
,,,,,,,de,other,de,m,26,,2021-08-07_12h29.20.382,online_experiment,2021.1.4,MacIntel,58.82352941,FALSE,,"Mozilla/5.0 (Macintosh; Intel Mac OS X 10_15_7) AppleWebKit/605.1.15 (KHTML, like Gecko) Version/14.1 Safari/605.1.15",1440,761,1440,900,,,,,,,,2,1.777,0.375555556,-0.402222222,1,0,0,next_trial_button,0,68,68,70,1,landscape,visiblesun,noclouds,8,"666.6666666666666,500",
,,,,,,,de,other,de,m,26,,2021-08-07_12h29.20.382,online_experiment,2021.1.4,MacIntel,58.82352941,FALSE,,"Mozilla/5.0 (Macintosh; Intel Mac OS X 10_15_7) AppleWebKit/605.1.15 (KHTML, like Gecko) Version/14.1 Safari/605.1.15",1440,761,1440,900,,,,,,,,9,1.523,0.341111111,-0.416666667,1,0,0,next_trial_button,0,69,69,9,1,beach,invisiblesun,yesclouds,1,"750,500",
,,,,,,,de,other,de,m,26,,2021-08-07_12h29.20.382,online_experiment,2021.1.4,MacIntel,58.82352941,FALSE,,"Mozilla/5.0 (Macintosh; Intel Mac OS X 10_15_7) AppleWebKit/605.1.15 (KHTML, like Gecko) Version/14.1 Safari/605.1.15",1440,761,1440,900,,,,,,,,5,1.587,0.357777778,-0.416666667,1,0,0,next_trial_button,0,70,70,37,1,landscape,invisiblesun,yesclouds,4,"669.4214876033058,500",
,,,,,,,de,other,de,m,26,,2021-08-07_12h29.20.382,online_experiment,2021.1.4,MacIntel,58.82352941,FALSE,,"Mozilla/5.0 (Macintosh; Intel Mac OS X 10_15_7) AppleWebKit/605.1.15 (KHTML, like Gecko) Version/14.1 Safari/605.1.15",1440,761,1440,900,,,,,,,,5,1.913,0.532222222,-0.44,1,0,0,next_trial_button,0,71,71,57,1,beach,invisiblesun,yesclouds,7,"749.707488299532,500",
,,,,,,,de,other,de,m,26,,2021-08-07_12h29.20.382,online_experiment,2021.1.4,MacIntel,58.82352941,FALSE,,"Mozilla/5.0 (Macintosh; Intel Mac OS X 10_15_7) AppleWebKit/605.1.15 (KHTML, like Gecko) Version/14.1 Safari/605.1.15",1440,761,1440,900,,,,,,,,4,1.545,0.31,-0.424444444,1,0,0,next_trial_button,0,72,72,21,1,landscape,invisiblesun,yesclouds,2,"750,500",
,,,,,,,de,other,de,m,26,,2021-08-07_12h29.20.382,online_experiment,2021.1.4,MacIntel,58.82352941,FALSE,,"Mozilla/5.0 (Macintosh; Intel Mac OS X 10_15_7) AppleWebKit/605.1.15 (KHTML, like Gecko) Version/14.1 Safari/605.1.15",1440,761,1440,900,,,,,,,,4,1.414,0.453333333,-0.437777778,1,0,0,next_trial_button,0,73,73,64,1,beach,invisiblesun,noclouds,8,"1028.5714285714284,500",
,,,,,,,de,other,de,m,26,,2021-08-07_12h29.20.382,online_experiment,2021.1.4,MacIntel,58.82352941,FALSE,,"Mozilla/5.0 (Macintosh; Intel Mac OS X 10_15_7) AppleWebKit/605.1.15 (KHTML, like Gecko) Version/14.1 Safari/605.1.15",1440,761,1440,900,,,,,,,,1,1.58,0.38,-0.423333333,1,0,0,next_trial_button,0,74,74,23,1,landscape,visiblesun,yesclouds,2,"767.97829036635,500",
,,,,,,,de,other,de,m,26,,2021-08-07_12h29.20.382,online_experiment,2021.1.4,MacIntel,58.82352941,FALSE,,"Mozilla/5.0 (Macintosh; Intel Mac OS X 10_15_7) AppleWebKit/605.1.15 (KHTML, like Gecko) Version/14.1 Safari/605.1.15",1440,761,1440,900,,,,,,,,3,2.037,0.525555556,-0.417777778,1,0,0,next_trial_button,0,75,75,44,1,landscape,invisiblesun,noclouds,5,"666.6666666666666,500",
,,,,,,,de,other,de,m,26,,2021-08-07_12h29.20.382,online_experiment,2021.1.4,MacIntel,58.82352941,FALSE,,"Mozilla/5.0 (Macintosh; Intel Mac OS X 10_15_7) AppleWebKit/605.1.15 (KHTML, like Gecko) Version/14.1 Safari/605.1.15",1440,761,1440,900,,,,,,,,1,1.454,0.375555556,-0.428888889,1,0,0,next_trial_button,0,76,76,39,1,landscape,visiblesun,yesclouds,4,"749.7656982193065,500",
,,,,,,,de,other,de,m,26,,2021-08-07_12h29.20.382,online_experiment,2021.1.4,MacIntel,58.82352941,FALSE,,"Mozilla/5.0 (Macintosh; Intel Mac OS X 10_15_7) AppleWebKit/605.1.15 (KHTML, like Gecko) Version/14.1 Safari/605.1.15",1440,761,1440,900,,,,,,,,3,1.757,0.473333333,-0.426666667,1,0,0,next_trial_button,0,77,77,8,1,beach,invisiblesun,noclouds,1,"1215.1898734177216,500",
,,,,,,,de,other,de,m,26,,2021-08-07_12h29.20.382,online_experiment,2021.1.4,MacIntel,58.82352941,FALSE,,"Mozilla/5.0 (Macintosh; Intel Mac OS X 10_15_7) AppleWebKit/605.1.15 (KHTML, like Gecko) Version/14.1 Safari/605.1.15",1440,761,1440,900,,,,,,,,7,1.736,0.361111111,-0.413333333,1,0,0,next_trial_button,0,78,78,27,1,beach,visiblesun,yesclouds,3,"752.8089887640449,500",
,,,,,,,de,other,de,m,26,,2021-08-07_12h29.20.382,online_experiment,2021.1.4,MacIntel,58.82352941,FALSE,,"Mozilla/5.0 (Macintosh; Intel Mac OS X 10_15_7) AppleWebKit/605.1.15 (KHTML, like Gecko) Version/14.1 Safari/605.1.15",1440,761,1440,900,,,,,,,,5,2.048,0.348888889,-0.408888889,1,0,0,next_trial_button,0,79,79,58,1,beach,visiblesun,noclouds,7,"1028.5714285714284,500",
,,,,,,,de,other,de,m,26,,2021-08-07_12h29.20.382,online_experiment,2021.1.4,MacIntel,58.82352941,FALSE,,"Mozilla/5.0 (Macintosh; Intel Mac OS X 10_15_7) AppleWebKit/605.1.15 (KHTML, like Gecko) Version/14.1 Safari/605.1.15",1440,761,1440,900,,,,,,,,,,,,,,,,,,,,,,,,,"1028.5714285714284,500",241.426
