language_mouse.x,language_mouse.y,language_mouse.leftButton,language_mouse.midButton,language_mouse.rightButton,language_mouse.time,language_mouse.clicked_name,nationality,mother_tongue,homeland,gender,age,email,date,expName,psychopyVersion,OS,frameRate,fbclid,cancel_experiment,cancel_reasons,client_agent_information,windowWidth,windowHeight,xRes,yRes,start_exp_mouse.x,start_exp_mouse.y,start_exp_mouse.leftButton,start_exp_mouse.midButton,start_exp_mouse.rightButton,start_exp_mouse.time,start_exp_mouse.clicked_name,rating_slider.response,rating_slider.rt,next_trial_mouse.x,next_trial_mouse.y,next_trial_mouse.leftButton,next_trial_mouse.midButton,next_trial_mouse.rightButton,next_trial_mouse.clicked_name,trials.thisRepN,trials.thisTrialN,trials.thisN,trials.thisIndex,trials.ran,environment,sunVisibility,cloudVisibility,imageId,imgSize,globalClockTime
0.293518554,-0.21388891,1,0,0,1.5303,gr_flag,gr,gr,gr,m,26,,2021-08-31_17h17.12.139,online_experiment,2021.1.4,Win32,60.10337781,IwAR0lQFiZ_PWPdU-w7FkFuBOCutjUu5qWZCf-XS09OG10azcElXu6O1afCmY,FALSE,,"Mozilla/5.0 (Windows NT 10.0; Win64; x64) AppleWebKit/537.36 (KHTML, like Gecko) Chrome/92.0.4515.159 Safari/537.36",1280,577,1280,720,,,,,,,,,,,,,,,,,,,,,,,,,,
,,,,,,,gr,gr,gr,m,26,,2021-08-31_17h17.12.139,online_experiment,2021.1.4,Win32,60.10337781,IwAR0lQFiZ_PWPdU-w7FkFuBOCutjUu5qWZCf-XS09OG10azcElXu6O1afCmY,FALSE,,"Mozilla/5.0 (Windows NT 10.0; Win64; x64) AppleWebKit/537.36 (KHTML, like Gecko) Chrome/92.0.4515.159 Safari/537.36",1280,577,1280,720,-0.055555531,-0.392592619,1,0,0,12.5815,cont_gr,5,6.7238,0.364814852,-0.412963047,1,0,0,next_trial_button,0,0,0,74,1,beach,visiblesun,noclouds,9,"1028.5714285714284,500",
,,,,,,,gr,gr,gr,m,26,,2021-08-31_17h17.12.139,online_experiment,2021.1.4,Win32,60.10337781,IwAR0lQFiZ_PWPdU-w7FkFuBOCutjUu5qWZCf-XS09OG10azcElXu6O1afCmY,FALSE,,"Mozilla/5.0 (Windows NT 10.0; Win64; x64) AppleWebKit/537.36 (KHTML, like Gecko) Chrome/92.0.4515.159 Safari/537.36",1280,577,1280,720,,,,,,,,4,4.8412,0.387037075,-0.409259286,1,0,0,next_trial_button,0,1,1,59,1,beach,visiblesun,yesclouds,7,"888.9689978370584,500",
,,,,,,,gr,gr,gr,m,26,,2021-08-31_17h17.12.139,online_experiment,2021.1.4,Win32,60.10337781,IwAR0lQFiZ_PWPdU-w7FkFuBOCutjUu5qWZCf-XS09OG10azcElXu6O1afCmY,FALSE,,"Mozilla/5.0 (Windows NT 10.0; Win64; x64) AppleWebKit/537.36 (KHTML, like Gecko) Chrome/92.0.4515.159 Safari/537.36",1280,577,1280,720,,,,,,,,2,2.7229,0.487037078,-0.398148175,1,0,0,next_trial_button,0,2,2,39,1,landscape,visiblesun,yesclouds,4,"749.7656982193065,500",
,,,,,,,gr,gr,gr,m,26,,2021-08-31_17h17.12.139,online_experiment,2021.1.4,Win32,60.10337781,IwAR0lQFiZ_PWPdU-w7FkFuBOCutjUu5qWZCf-XS09OG10azcElXu6O1afCmY,FALSE,,"Mozilla/5.0 (Windows NT 10.0; Win64; x64) AppleWebKit/537.36 (KHTML, like Gecko) Chrome/92.0.4515.159 Safari/537.36",1280,577,1280,720,,,,,,,,7,5.5615,0.382407445,-0.418518602,1,0,0,next_trial_button,0,3,3,2,1,beach,visiblesun,noclouds,0,"375,500",
,,,,,,,gr,gr,gr,m,26,,2021-08-31_17h17.12.139,online_experiment,2021.1.4,Win32,60.10337781,IwAR0lQFiZ_PWPdU-w7FkFuBOCutjUu5qWZCf-XS09OG10azcElXu6O1afCmY,FALSE,,"Mozilla/5.0 (Windows NT 10.0; Win64; x64) AppleWebKit/537.36 (KHTML, like Gecko) Chrome/92.0.4515.159 Safari/537.36",1280,577,1280,720,,,,,,,,8,2.6042,0.432407447,-0.404629713,1,0,0,next_trial_button,0,4,4,64,1,beach,invisiblesun,noclouds,8,"1028.5714285714284,500",
,,,,,,,gr,gr,gr,m,26,,2021-08-31_17h17.12.139,online_experiment,2021.1.4,Win32,60.10337781,IwAR0lQFiZ_PWPdU-w7FkFuBOCutjUu5qWZCf-XS09OG10azcElXu6O1afCmY,FALSE,,"Mozilla/5.0 (Windows NT 10.0; Win64; x64) AppleWebKit/537.36 (KHTML, like Gecko) Chrome/92.0.4515.159 Safari/537.36",1280,577,1280,720,,,,,,,,7,2.8851,0.339814851,-0.425925954,1,0,0,next_trial_button,0,5,5,38,1,landscape,visiblesun,noclouds,4,"733.3333333333333,500",
,,,,,,,gr,gr,gr,m,26,,2021-08-31_17h17.12.139,online_experiment,2021.1.4,Win32,60.10337781,IwAR0lQFiZ_PWPdU-w7FkFuBOCutjUu5qWZCf-XS09OG10azcElXu6O1afCmY,FALSE,,"Mozilla/5.0 (Windows NT 10.0; Win64; x64) AppleWebKit/537.36 (KHTML, like Gecko) Chrome/92.0.4515.159 Safari/537.36",1280,577,1280,720,,,,,,,,6,3.0168,0.371296334,-0.420370398,1,0,0,next_trial_button,0,6,6,56,1,beach,invisiblesun,noclouds,7,"1028.5714285714284,500",
,,,,,,,gr,gr,gr,m,26,,2021-08-31_17h17.12.139,online_experiment,2021.1.4,Win32,60.10337781,IwAR0lQFiZ_PWPdU-w7FkFuBOCutjUu5qWZCf-XS09OG10azcElXu6O1afCmY,FALSE,,"Mozilla/5.0 (Windows NT 10.0; Win64; x64) AppleWebKit/537.36 (KHTML, like Gecko) Chrome/92.0.4515.159 Safari/537.36",1280,577,1280,720,,,,,,,,4,2.5134,0.436111151,-0.427777805,1,0,0,next_trial_button,0,7,7,35,1,beach,visiblesun,yesclouds,4,"750,500",
,,,,,,,gr,gr,gr,m,26,,2021-08-31_17h17.12.139,online_experiment,2021.1.4,Win32,60.10337781,IwAR0lQFiZ_PWPdU-w7FkFuBOCutjUu5qWZCf-XS09OG10azcElXu6O1afCmY,FALSE,,"Mozilla/5.0 (Windows NT 10.0; Win64; x64) AppleWebKit/537.36 (KHTML, like Gecko) Chrome/92.0.4515.159 Safari/537.36",1280,577,1280,720,,,,,,,,8,3.2885,0.336111148,-0.432407492,1,0,0,next_trial_button,0,8,8,57,1,beach,invisiblesun,yesclouds,7,"749.707488299532,500",
,,,,,,,gr,gr,gr,m,26,,2021-08-31_17h17.12.139,online_experiment,2021.1.4,Win32,60.10337781,IwAR0lQFiZ_PWPdU-w7FkFuBOCutjUu5qWZCf-XS09OG10azcElXu6O1afCmY,FALSE,,"Mozilla/5.0 (Windows NT 10.0; Win64; x64) AppleWebKit/537.36 (KHTML, like Gecko) Chrome/92.0.4515.159 Safari/537.36",1280,577,1280,720,,,,,,,,8,2.492,0.310185221,-0.401851935,1,0,0,next_trial_button,0,9,9,40,1,beach,invisiblesun,noclouds,5,"1028.5714285714284,500",
,,,,,,,gr,gr,gr,m,26,,2021-08-31_17h17.12.139,online_experiment,2021.1.4,Win32,60.10337781,IwAR0lQFiZ_PWPdU-w7FkFuBOCutjUu5qWZCf-XS09OG10azcElXu6O1afCmY,FALSE,,"Mozilla/5.0 (Windows NT 10.0; Win64; x64) AppleWebKit/537.36 (KHTML, like Gecko) Chrome/92.0.4515.159 Safari/537.36",1280,577,1280,720,,,,,,,,8,2.1933,0.408333372,-0.425925954,1,0,0,next_trial_button,0,10,10,31,1,landscape,visiblesun,yesclouds,3,"638.0622837370242,500",
,,,,,,,gr,gr,gr,m,26,,2021-08-31_17h17.12.139,online_experiment,2021.1.4,Win32,60.10337781,IwAR0lQFiZ_PWPdU-w7FkFuBOCutjUu5qWZCf-XS09OG10azcElXu6O1afCmY,FALSE,,"Mozilla/5.0 (Windows NT 10.0; Win64; x64) AppleWebKit/537.36 (KHTML, like Gecko) Chrome/92.0.4515.159 Safari/537.36",1280,577,1280,720,,,,,,,,10,2.2376,0.416666706,-0.425000028,1,0,0,next_trial_button,0,11,11,22,1,landscape,visiblesun,noclouds,2,"749.3333333333333,500",
,,,,,,,gr,gr,gr,m,26,,2021-08-31_17h17.12.139,online_experiment,2021.1.4,Win32,60.10337781,IwAR0lQFiZ_PWPdU-w7FkFuBOCutjUu5qWZCf-XS09OG10azcElXu6O1afCmY,FALSE,,"Mozilla/5.0 (Windows NT 10.0; Win64; x64) AppleWebKit/537.36 (KHTML, like Gecko) Chrome/92.0.4515.159 Safari/537.36",1280,577,1280,720,,,,,,,,5,3.4276,0.366666704,-0.412963047,1,0,0,next_trial_button,0,12,12,3,1,beach,visiblesun,yesclouds,0,"1152.5122276567363,500",
,,,,,,,gr,gr,gr,m,26,,2021-08-31_17h17.12.139,online_experiment,2021.1.4,Win32,60.10337781,IwAR0lQFiZ_PWPdU-w7FkFuBOCutjUu5qWZCf-XS09OG10azcElXu6O1afCmY,FALSE,,"Mozilla/5.0 (Windows NT 10.0; Win64; x64) AppleWebKit/537.36 (KHTML, like Gecko) Chrome/92.0.4515.159 Safari/537.36",1280,577,1280,720,,,,,,,,8,2.0755,0.394444483,-0.429629714,1,0,0,next_trial_button,0,13,13,75,1,beach,visiblesun,yesclouds,9,"1029.6010296010297,500",
,,,,,,,gr,gr,gr,m,26,,2021-08-31_17h17.12.139,online_experiment,2021.1.4,Win32,60.10337781,IwAR0lQFiZ_PWPdU-w7FkFuBOCutjUu5qWZCf-XS09OG10azcElXu6O1afCmY,FALSE,,"Mozilla/5.0 (Windows NT 10.0; Win64; x64) AppleWebKit/537.36 (KHTML, like Gecko) Chrome/92.0.4515.159 Safari/537.36",1280,577,1280,720,,,,,,,,4,2.7204,0.420370409,-0.401851935,1,0,0,next_trial_button,0,14,14,78,1,landscape,visiblesun,noclouds,9,"666.6666666666666,500",
,,,,,,,gr,gr,gr,m,26,,2021-08-31_17h17.12.139,online_experiment,2021.1.4,Win32,60.10337781,IwAR0lQFiZ_PWPdU-w7FkFuBOCutjUu5qWZCf-XS09OG10azcElXu6O1afCmY,FALSE,,"Mozilla/5.0 (Windows NT 10.0; Win64; x64) AppleWebKit/537.36 (KHTML, like Gecko) Chrome/92.0.4515.159 Safari/537.36",1280,577,1280,720,,,,,,,,7,4.0218,0.40648152,-0.387037063,1,0,0,next_trial_button,0,15,15,10,1,beach,visiblesun,noclouds,1,"747.0261697065821,500",
,,,,,,,gr,gr,gr,m,26,,2021-08-31_17h17.12.139,online_experiment,2021.1.4,Win32,60.10337781,IwAR0lQFiZ_PWPdU-w7FkFuBOCutjUu5qWZCf-XS09OG10azcElXu6O1afCmY,FALSE,,"Mozilla/5.0 (Windows NT 10.0; Win64; x64) AppleWebKit/537.36 (KHTML, like Gecko) Chrome/92.0.4515.159 Safari/537.36",1280,577,1280,720,,,,,,,,5,2.1373,0.390740779,-0.429629714,1,0,0,next_trial_button,0,16,16,12,1,landscape,invisiblesun,noclouds,1,"666.6666666666666,500",
,,,,,,,gr,gr,gr,m,26,,2021-08-31_17h17.12.139,online_experiment,2021.1.4,Win32,60.10337781,IwAR0lQFiZ_PWPdU-w7FkFuBOCutjUu5qWZCf-XS09OG10azcElXu6O1afCmY,FALSE,,"Mozilla/5.0 (Windows NT 10.0; Win64; x64) AppleWebKit/537.36 (KHTML, like Gecko) Chrome/92.0.4515.159 Safari/537.36",1280,577,1280,720,,,,,,,,6,2.462,0.346296333,-0.381481508,1,0,0,next_trial_button,0,17,17,13,1,landscape,invisiblesun,yesclouds,1,"783.1192660550458,500",
,,,,,,,gr,gr,gr,m,26,,2021-08-31_17h17.12.139,online_experiment,2021.1.4,Win32,60.10337781,IwAR0lQFiZ_PWPdU-w7FkFuBOCutjUu5qWZCf-XS09OG10azcElXu6O1afCmY,FALSE,,"Mozilla/5.0 (Windows NT 10.0; Win64; x64) AppleWebKit/537.36 (KHTML, like Gecko) Chrome/92.0.4515.159 Safari/537.36",1280,577,1280,720,,,,,,,,1,2.308,0.343518555,-0.428703731,1,0,0,next_trial_button,0,18,18,52,1,landscape,invisiblesun,noclouds,6,"666.6666666666666,500",
,,,,,,,gr,gr,gr,m,26,,2021-08-31_17h17.12.139,online_experiment,2021.1.4,Win32,60.10337781,IwAR0lQFiZ_PWPdU-w7FkFuBOCutjUu5qWZCf-XS09OG10azcElXu6O1afCmY,FALSE,,"Mozilla/5.0 (Windows NT 10.0; Win64; x64) AppleWebKit/537.36 (KHTML, like Gecko) Chrome/92.0.4515.159 Safari/537.36",1280,577,1280,720,,,,,,,,4,2.4936,0.347222259,-0.427777805,1,0,0,next_trial_button,0,19,19,51,1,beach,visiblesun,yesclouds,6,"657.1279916753382,500",
,,,,,,,gr,gr,gr,m,26,,2021-08-31_17h17.12.139,online_experiment,2021.1.4,Win32,60.10337781,IwAR0lQFiZ_PWPdU-w7FkFuBOCutjUu5qWZCf-XS09OG10azcElXu6O1afCmY,FALSE,,"Mozilla/5.0 (Windows NT 10.0; Win64; x64) AppleWebKit/537.36 (KHTML, like Gecko) Chrome/92.0.4515.159 Safari/537.36",1280,577,1280,720,,,,,,,,5,2.2186,0.341666703,-0.420370398,1,0,0,next_trial_button,0,20,20,5,1,landscape,invisiblesun,yesclouds,0,"750.4690431519699,500",
,,,,,,,gr,gr,gr,m,26,,2021-08-31_17h17.12.139,online_experiment,2021.1.4,Win32,60.10337781,IwAR0lQFiZ_PWPdU-w7FkFuBOCutjUu5qWZCf-XS09OG10azcElXu6O1afCmY,FALSE,,"Mozilla/5.0 (Windows NT 10.0; Win64; x64) AppleWebKit/537.36 (KHTML, like Gecko) Chrome/92.0.4515.159 Safari/537.36",1280,577,1280,720,,,,,,,,5,3.5207,0.374074112,-0.433333361,1,0,0,next_trial_button,0,21,21,71,1,landscape,visiblesun,yesclouds,8,"666.6666666666666,500",
,,,,,,,gr,gr,gr,m,26,,2021-08-31_17h17.12.139,online_experiment,2021.1.4,Win32,60.10337781,IwAR0lQFiZ_PWPdU-w7FkFuBOCutjUu5qWZCf-XS09OG10azcElXu6O1afCmY,FALSE,,"Mozilla/5.0 (Windows NT 10.0; Win64; x64) AppleWebKit/537.36 (KHTML, like Gecko) Chrome/92.0.4515.159 Safari/537.36",1280,577,1280,720,,,,,,,,6,2.9761,0.370370408,-0.426851936,1,0,0,next_trial_button,0,22,22,48,1,beach,invisiblesun,noclouds,6,"1028.5714285714284,500",
,,,,,,,gr,gr,gr,m,26,,2021-08-31_17h17.12.139,online_experiment,2021.1.4,Win32,60.10337781,IwAR0lQFiZ_PWPdU-w7FkFuBOCutjUu5qWZCf-XS09OG10azcElXu6O1afCmY,FALSE,,"Mozilla/5.0 (Windows NT 10.0; Win64; x64) AppleWebKit/537.36 (KHTML, like Gecko) Chrome/92.0.4515.159 Safari/537.36",1280,577,1280,720,,,,,,,,6,2.0742,0.433333373,-0.415740825,1,0,0,next_trial_button,0,23,23,24,1,beach,invisiblesun,noclouds,3,"750.089190153407,500",
,,,,,,,gr,gr,gr,m,26,,2021-08-31_17h17.12.139,online_experiment,2021.1.4,Win32,60.10337781,IwAR0lQFiZ_PWPdU-w7FkFuBOCutjUu5qWZCf-XS09OG10azcElXu6O1afCmY,FALSE,,"Mozilla/5.0 (Windows NT 10.0; Win64; x64) AppleWebKit/537.36 (KHTML, like Gecko) Chrome/92.0.4515.159 Safari/537.36",1280,577,1280,720,,,,,,,,6,2.3574,0.525925968,-0.437037065,1,0,0,next_trial_button,0,24,24,7,1,landscape,visiblesun,yesclouds,0,"743.421052631579,500",
,,,,,,,gr,gr,gr,m,26,,2021-08-31_17h17.12.139,online_experiment,2021.1.4,Win32,60.10337781,IwAR0lQFiZ_PWPdU-w7FkFuBOCutjUu5qWZCf-XS09OG10azcElXu6O1afCmY,FALSE,,"Mozilla/5.0 (Windows NT 10.0; Win64; x64) AppleWebKit/537.36 (KHTML, like Gecko) Chrome/92.0.4515.159 Safari/537.36",1280,577,1280,720,,,,,,,,5,2.4108,0.332407444,-0.395370397,1,0,0,next_trial_button,0,25,25,65,1,beach,invisiblesun,yesclouds,8,"750,500",
,,,,,,,gr,gr,gr,m,26,,2021-08-31_17h17.12.139,online_experiment,2021.1.4,Win32,60.10337781,IwAR0lQFiZ_PWPdU-w7FkFuBOCutjUu5qWZCf-XS09OG10azcElXu6O1afCmY,FALSE,,"Mozilla/5.0 (Windows NT 10.0; Win64; x64) AppleWebKit/537.36 (KHTML, like Gecko) Chrome/92.0.4515.159 Safari/537.36",1280,577,1280,720,,,,,,,,6,2.3879,0.348148185,-0.425000028,1,0,0,next_trial_button,0,26,26,25,1,beach,invisiblesun,yesclouds,3,"750.4690431519699,500",
,,,,,,,gr,gr,gr,m,26,,2021-08-31_17h17.12.139,online_experiment,2021.1.4,Win32,60.10337781,IwAR0lQFiZ_PWPdU-w7FkFuBOCutjUu5qWZCf-XS09OG10azcElXu6O1afCmY,FALSE,,"Mozilla/5.0 (Windows NT 10.0; Win64; x64) AppleWebKit/537.36 (KHTML, like Gecko) Chrome/92.0.4515.159 Safari/537.36",1280,577,1280,720,,,,,,,,4,2.3251,0.349074111,-0.428703731,1,0,0,next_trial_button,0,27,27,55,1,landscape,visiblesun,yesclouds,6,"749.8819083608881,500",
,,,,,,,gr,gr,gr,m,26,,2021-08-31_17h17.12.139,online_experiment,2021.1.4,Win32,60.10337781,IwAR0lQFiZ_PWPdU-w7FkFuBOCutjUu5qWZCf-XS09OG10azcElXu6O1afCmY,FALSE,,"Mozilla/5.0 (Windows NT 10.0; Win64; x64) AppleWebKit/537.36 (KHTML, like Gecko) Chrome/92.0.4515.159 Safari/537.36",1280,577,1280,720,,,,,,,,2,2.8642,0.36759263,-0.394444471,1,0,0,next_trial_button,0,28,28,76,1,landscape,invisiblesun,noclouds,9,"1056.6037735849056,500",
,,,,,,,gr,gr,gr,m,26,,2021-08-31_17h17.12.139,online_experiment,2021.1.4,Win32,60.10337781,IwAR0lQFiZ_PWPdU-w7FkFuBOCutjUu5qWZCf-XS09OG10azcElXu6O1afCmY,FALSE,,"Mozilla/5.0 (Windows NT 10.0; Win64; x64) AppleWebKit/537.36 (KHTML, like Gecko) Chrome/92.0.4515.159 Safari/537.36",1280,577,1280,720,,,,,,,,5,2.1482,0.394444483,-0.425925954,1,0,0,next_trial_button,0,29,29,16,1,beach,invisiblesun,noclouds,2,"752.8089887640449,500",
,,,,,,,gr,gr,gr,m,26,,2021-08-31_17h17.12.139,online_experiment,2021.1.4,Win32,60.10337781,IwAR0lQFiZ_PWPdU-w7FkFuBOCutjUu5qWZCf-XS09OG10azcElXu6O1afCmY,FALSE,,"Mozilla/5.0 (Windows NT 10.0; Win64; x64) AppleWebKit/537.36 (KHTML, like Gecko) Chrome/92.0.4515.159 Safari/537.36",1280,577,1280,720,,,,,,,,5,1.9748,0.342592629,-0.403703731,1,0,0,next_trial_button,0,30,30,79,1,landscape,visiblesun,yesclouds,9,"1028.5714285714284,500",
,,,,,,,gr,gr,gr,m,26,,2021-08-31_17h17.12.139,online_experiment,2021.1.4,Win32,60.10337781,IwAR0lQFiZ_PWPdU-w7FkFuBOCutjUu5qWZCf-XS09OG10azcElXu6O1afCmY,FALSE,,"Mozilla/5.0 (Windows NT 10.0; Win64; x64) AppleWebKit/537.36 (KHTML, like Gecko) Chrome/92.0.4515.159 Safari/537.36",1280,577,1280,720,,,,,,,,4,2.1035,0.37222226,-0.414814842,1,0,0,next_trial_button,0,31,31,68,1,landscape,invisiblesun,noclouds,8,"666.6666666666666,500",
,,,,,,,gr,gr,gr,m,26,,2021-08-31_17h17.12.139,online_experiment,2021.1.4,Win32,60.10337781,IwAR0lQFiZ_PWPdU-w7FkFuBOCutjUu5qWZCf-XS09OG10azcElXu6O1afCmY,FALSE,,"Mozilla/5.0 (Windows NT 10.0; Win64; x64) AppleWebKit/537.36 (KHTML, like Gecko) Chrome/92.0.4515.159 Safari/537.36",1280,577,1280,720,,,,,,,,4,2.2221,0.385185223,-0.429629714,1,0,0,next_trial_button,0,32,32,58,1,beach,visiblesun,noclouds,7,"1028.5714285714284,500",
,,,,,,,gr,gr,gr,m,26,,2021-08-31_17h17.12.139,online_experiment,2021.1.4,Win32,60.10337781,IwAR0lQFiZ_PWPdU-w7FkFuBOCutjUu5qWZCf-XS09OG10azcElXu6O1afCmY,FALSE,,"Mozilla/5.0 (Windows NT 10.0; Win64; x64) AppleWebKit/537.36 (KHTML, like Gecko) Chrome/92.0.4515.159 Safari/537.36",1280,577,1280,720,,,,,,,,8,2.254,0.48888893,-0.404629713,1,0,0,next_trial_button,0,33,33,1,1,beach,invisiblesun,yesclouds,0,"666.6666666666666,500",
,,,,,,,gr,gr,gr,m,26,,2021-08-31_17h17.12.139,online_experiment,2021.1.4,Win32,60.10337781,IwAR0lQFiZ_PWPdU-w7FkFuBOCutjUu5qWZCf-XS09OG10azcElXu6O1afCmY,FALSE,,"Mozilla/5.0 (Windows NT 10.0; Win64; x64) AppleWebKit/537.36 (KHTML, like Gecko) Chrome/92.0.4515.159 Safari/537.36",1280,577,1280,720,,,,,,,,9,2.9717,0.468518559,-0.429629714,1,0,0,next_trial_button,0,34,34,46,1,landscape,visiblesun,noclouds,5,"750,500",
,,,,,,,gr,gr,gr,m,26,,2021-08-31_17h17.12.139,online_experiment,2021.1.4,Win32,60.10337781,IwAR0lQFiZ_PWPdU-w7FkFuBOCutjUu5qWZCf-XS09OG10azcElXu6O1afCmY,FALSE,,"Mozilla/5.0 (Windows NT 10.0; Win64; x64) AppleWebKit/537.36 (KHTML, like Gecko) Chrome/92.0.4515.159 Safari/537.36",1280,577,1280,720,,,,,,,,7,2.093,0.327777814,-0.420370398,1,0,0,next_trial_button,0,35,35,43,1,beach,visiblesun,yesclouds,5,"750,500",
,,,,,,,gr,gr,gr,m,26,,2021-08-31_17h17.12.139,online_experiment,2021.1.4,Win32,60.10337781,IwAR0lQFiZ_PWPdU-w7FkFuBOCutjUu5qWZCf-XS09OG10azcElXu6O1afCmY,FALSE,,"Mozilla/5.0 (Windows NT 10.0; Win64; x64) AppleWebKit/537.36 (KHTML, like Gecko) Chrome/92.0.4515.159 Safari/537.36",1280,577,1280,720,,,,,,,,6,1.9958,0.355555593,-0.428703731,1,0,0,next_trial_button,0,36,36,15,1,landscape,visiblesun,yesclouds,1,"333.3333333333333,500",
,,,,,,,gr,gr,gr,m,26,,2021-08-31_17h17.12.139,online_experiment,2021.1.4,Win32,60.10337781,IwAR0lQFiZ_PWPdU-w7FkFuBOCutjUu5qWZCf-XS09OG10azcElXu6O1afCmY,FALSE,,"Mozilla/5.0 (Windows NT 10.0; Win64; x64) AppleWebKit/537.36 (KHTML, like Gecko) Chrome/92.0.4515.159 Safari/537.36",1280,577,1280,720,,,,,,,,6,1.9046,0.387037075,-0.433333361,1,0,0,next_trial_button,0,37,37,72,1,beach,invisiblesun,noclouds,9,"888.8888888888888,500",
,,,,,,,gr,gr,gr,m,26,,2021-08-31_17h17.12.139,online_experiment,2021.1.4,Win32,60.10337781,IwAR0lQFiZ_PWPdU-w7FkFuBOCutjUu5qWZCf-XS09OG10azcElXu6O1afCmY,FALSE,,"Mozilla/5.0 (Windows NT 10.0; Win64; x64) AppleWebKit/537.36 (KHTML, like Gecko) Chrome/92.0.4515.159 Safari/537.36",1280,577,1280,720,,,,,,,,5,5.2445,0.413888928,-0.406481508,1,0,0,next_trial_button,0,38,38,41,1,beach,invisiblesun,yesclouds,5,"1248.4394506866417,500",
,,,,,,,gr,gr,gr,m,26,,2021-08-31_17h17.12.139,online_experiment,2021.1.4,Win32,60.10337781,IwAR0lQFiZ_PWPdU-w7FkFuBOCutjUu5qWZCf-XS09OG10azcElXu6O1afCmY,FALSE,,"Mozilla/5.0 (Windows NT 10.0; Win64; x64) AppleWebKit/537.36 (KHTML, like Gecko) Chrome/92.0.4515.159 Safari/537.36",1280,577,1280,720,,,,,,,,8,2.1731,0.336111148,-0.423148176,1,0,0,next_trial_button,0,39,39,63,1,landscape,visiblesun,yesclouds,7,"331.94444444444446,500",
,,,,,,,gr,gr,gr,m,26,,2021-08-31_17h17.12.139,online_experiment,2021.1.4,Win32,60.10337781,IwAR0lQFiZ_PWPdU-w7FkFuBOCutjUu5qWZCf-XS09OG10azcElXu6O1afCmY,FALSE,,"Mozilla/5.0 (Windows NT 10.0; Win64; x64) AppleWebKit/537.36 (KHTML, like Gecko) Chrome/92.0.4515.159 Safari/537.36",1280,577,1280,720,,,,,,,,9,2.2332,0.400000038,-0.437037065,1,0,0,next_trial_button,0,40,40,29,1,landscape,invisiblesun,yesclouds,3,"749.8660953401178,500",
,,,,,,,gr,gr,gr,m,26,,2021-08-31_17h17.12.139,online_experiment,2021.1.4,Win32,60.10337781,IwAR0lQFiZ_PWPdU-w7FkFuBOCutjUu5qWZCf-XS09OG10azcElXu6O1afCmY,FALSE,,"Mozilla/5.0 (Windows NT 10.0; Win64; x64) AppleWebKit/537.36 (KHTML, like Gecko) Chrome/92.0.4515.159 Safari/537.36",1280,577,1280,720,,,,,,,,8,2.8503,0.380555593,-0.420370398,1,0,0,next_trial_button,0,41,41,47,1,landscape,visiblesun,yesclouds,5,"666.6666666666666,500",
,,,,,,,gr,gr,gr,m,26,,2021-08-31_17h17.12.139,online_experiment,2021.1.4,Win32,60.10337781,IwAR0lQFiZ_PWPdU-w7FkFuBOCutjUu5qWZCf-XS09OG10azcElXu6O1afCmY,FALSE,,"Mozilla/5.0 (Windows NT 10.0; Win64; x64) AppleWebKit/537.36 (KHTML, like Gecko) Chrome/92.0.4515.159 Safari/537.36",1280,577,1280,720,,,,,,,,6,2.5899,0.341666703,-0.391666693,1,0,0,next_trial_button,0,42,42,70,1,landscape,visiblesun,noclouds,8,"666.6666666666666,500",
,,,,,,,gr,gr,gr,m,26,,2021-08-31_17h17.12.139,online_experiment,2021.1.4,Win32,60.10337781,IwAR0lQFiZ_PWPdU-w7FkFuBOCutjUu5qWZCf-XS09OG10azcElXu6O1afCmY,FALSE,,"Mozilla/5.0 (Windows NT 10.0; Win64; x64) AppleWebKit/537.36 (KHTML, like Gecko) Chrome/92.0.4515.159 Safari/537.36",1280,577,1280,720,,,,,,,,5,2.6242,0.45462967,-0.39629638,1,0,0,next_trial_button,0,43,43,44,1,landscape,invisiblesun,noclouds,5,"666.6666666666666,500",
,,,,,,,gr,gr,gr,m,26,,2021-08-31_17h17.12.139,online_experiment,2021.1.4,Win32,60.10337781,IwAR0lQFiZ_PWPdU-w7FkFuBOCutjUu5qWZCf-XS09OG10azcElXu6O1afCmY,FALSE,,"Mozilla/5.0 (Windows NT 10.0; Win64; x64) AppleWebKit/537.36 (KHTML, like Gecko) Chrome/92.0.4515.159 Safari/537.36",1280,577,1280,720,,,,,,,,4,2.2547,0.337037074,-0.419444472,1,0,0,next_trial_button,0,44,44,23,1,landscape,visiblesun,yesclouds,2,"767.97829036635,500",
,,,,,,,gr,gr,gr,m,26,,2021-08-31_17h17.12.139,online_experiment,2021.1.4,Win32,60.10337781,IwAR0lQFiZ_PWPdU-w7FkFuBOCutjUu5qWZCf-XS09OG10azcElXu6O1afCmY,FALSE,,"Mozilla/5.0 (Windows NT 10.0; Win64; x64) AppleWebKit/537.36 (KHTML, like Gecko) Chrome/92.0.4515.159 Safari/537.36",1280,577,1280,720,,,,,,,,8,2.045,0.307407443,-0.398148175,1,0,0,next_trial_button,0,45,45,14,1,landscape,visiblesun,noclouds,1,"745.9919839679359,500",
,,,,,,,gr,gr,gr,m,26,,2021-08-31_17h17.12.139,online_experiment,2021.1.4,Win32,60.10337781,IwAR0lQFiZ_PWPdU-w7FkFuBOCutjUu5qWZCf-XS09OG10azcElXu6O1afCmY,FALSE,,"Mozilla/5.0 (Windows NT 10.0; Win64; x64) AppleWebKit/537.36 (KHTML, like Gecko) Chrome/92.0.4515.159 Safari/537.36",1280,577,1280,720,,,,,,,,8,2.1038,0.350925963,-0.411111138,1,0,0,next_trial_button,0,46,46,67,1,beach,visiblesun,yesclouds,8,"748.1481481481482,500",
,,,,,,,gr,gr,gr,m,26,,2021-08-31_17h17.12.139,online_experiment,2021.1.4,Win32,60.10337781,IwAR0lQFiZ_PWPdU-w7FkFuBOCutjUu5qWZCf-XS09OG10azcElXu6O1afCmY,FALSE,,"Mozilla/5.0 (Windows NT 10.0; Win64; x64) AppleWebKit/537.36 (KHTML, like Gecko) Chrome/92.0.4515.159 Safari/537.36",1280,577,1280,720,,,,,,,,9,4.1235,0.467592633,-0.388888915,1,0,0,next_trial_button,0,47,47,53,1,landscape,invisiblesun,yesclouds,6,"750.0695023630803,500",
,,,,,,,gr,gr,gr,m,26,,2021-08-31_17h17.12.139,online_experiment,2021.1.4,Win32,60.10337781,IwAR0lQFiZ_PWPdU-w7FkFuBOCutjUu5qWZCf-XS09OG10azcElXu6O1afCmY,FALSE,,"Mozilla/5.0 (Windows NT 10.0; Win64; x64) AppleWebKit/537.36 (KHTML, like Gecko) Chrome/92.0.4515.159 Safari/537.36",1280,577,1280,720,,,,,,,,3,2.2719,0.394444483,-0.41759262,1,0,0,next_trial_button,0,48,48,66,1,beach,visiblesun,noclouds,8,"1028.5714285714284,500",
,,,,,,,gr,gr,gr,m,26,,2021-08-31_17h17.12.139,online_experiment,2021.1.4,Win32,60.10337781,IwAR0lQFiZ_PWPdU-w7FkFuBOCutjUu5qWZCf-XS09OG10azcElXu6O1afCmY,FALSE,,"Mozilla/5.0 (Windows NT 10.0; Win64; x64) AppleWebKit/537.36 (KHTML, like Gecko) Chrome/92.0.4515.159 Safari/537.36",1280,577,1280,720,,,,,,,,8,2.2362,0.373148186,-0.405555583,1,0,0,next_trial_button,0,49,49,45,1,landscape,invisiblesun,yesclouds,5,"749.6251874062968,500",
,,,,,,,gr,gr,gr,m,26,,2021-08-31_17h17.12.139,online_experiment,2021.1.4,Win32,60.10337781,IwAR0lQFiZ_PWPdU-w7FkFuBOCutjUu5qWZCf-XS09OG10azcElXu6O1afCmY,FALSE,,"Mozilla/5.0 (Windows NT 10.0; Win64; x64) AppleWebKit/537.36 (KHTML, like Gecko) Chrome/92.0.4515.159 Safari/537.36",1280,577,1280,720,,,,,,,,5,2.3555,0.446296336,-0.412037064,1,0,0,next_trial_button,0,50,50,36,1,landscape,invisiblesun,noclouds,4,"281.25,500",
,,,,,,,gr,gr,gr,m,26,,2021-08-31_17h17.12.139,online_experiment,2021.1.4,Win32,60.10337781,IwAR0lQFiZ_PWPdU-w7FkFuBOCutjUu5qWZCf-XS09OG10azcElXu6O1afCmY,FALSE,,"Mozilla/5.0 (Windows NT 10.0; Win64; x64) AppleWebKit/537.36 (KHTML, like Gecko) Chrome/92.0.4515.159 Safari/537.36",1280,577,1280,720,,,,,,,,6,2.1717,0.357407445,-0.399074157,1,0,0,next_trial_button,0,51,51,9,1,beach,invisiblesun,yesclouds,1,"750,500",
,,,,,,,gr,gr,gr,m,26,,2021-08-31_17h17.12.139,online_experiment,2021.1.4,Win32,60.10337781,IwAR0lQFiZ_PWPdU-w7FkFuBOCutjUu5qWZCf-XS09OG10azcElXu6O1afCmY,FALSE,,"Mozilla/5.0 (Windows NT 10.0; Win64; x64) AppleWebKit/537.36 (KHTML, like Gecko) Chrome/92.0.4515.159 Safari/537.36",1280,577,1280,720,,,,,,,,8,2.0119,0.464814855,-0.425000028,1,0,0,next_trial_button,0,52,52,6,1,landscape,visiblesun,noclouds,0,"1413.8005159071367,500",
,,,,,,,gr,gr,gr,m,26,,2021-08-31_17h17.12.139,online_experiment,2021.1.4,Win32,60.10337781,IwAR0lQFiZ_PWPdU-w7FkFuBOCutjUu5qWZCf-XS09OG10azcElXu6O1afCmY,FALSE,,"Mozilla/5.0 (Windows NT 10.0; Win64; x64) AppleWebKit/537.36 (KHTML, like Gecko) Chrome/92.0.4515.159 Safari/537.36",1280,577,1280,720,,,,,,,,8,1.8888,0.340740777,-0.426851936,1,0,0,next_trial_button,0,53,53,19,1,beach,visiblesun,yesclouds,2,"770.1393095093882,500",
,,,,,,,gr,gr,gr,m,26,,2021-08-31_17h17.12.139,online_experiment,2021.1.4,Win32,60.10337781,IwAR0lQFiZ_PWPdU-w7FkFuBOCutjUu5qWZCf-XS09OG10azcElXu6O1afCmY,FALSE,,"Mozilla/5.0 (Windows NT 10.0; Win64; x64) AppleWebKit/537.36 (KHTML, like Gecko) Chrome/92.0.4515.159 Safari/537.36",1280,577,1280,720,,,,,,,,8,1.6525,0.44074078,-0.419444472,1,0,0,next_trial_button,0,54,54,18,1,beach,visiblesun,noclouds,2,"666.6666666666666,500",
,,,,,,,gr,gr,gr,m,26,,2021-08-31_17h17.12.139,online_experiment,2021.1.4,Win32,60.10337781,IwAR0lQFiZ_PWPdU-w7FkFuBOCutjUu5qWZCf-XS09OG10azcElXu6O1afCmY,FALSE,,"Mozilla/5.0 (Windows NT 10.0; Win64; x64) AppleWebKit/537.36 (KHTML, like Gecko) Chrome/92.0.4515.159 Safari/537.36",1280,577,1280,720,,,,,,,,9,2.6182,0.447222262,-0.420370398,1,0,0,next_trial_button,0,55,55,33,1,beach,invisiblesun,yesclouds,4,"751.5473032714411,500",
,,,,,,,gr,gr,gr,m,26,,2021-08-31_17h17.12.139,online_experiment,2021.1.4,Win32,60.10337781,IwAR0lQFiZ_PWPdU-w7FkFuBOCutjUu5qWZCf-XS09OG10azcElXu6O1afCmY,FALSE,,"Mozilla/5.0 (Windows NT 10.0; Win64; x64) AppleWebKit/537.36 (KHTML, like Gecko) Chrome/92.0.4515.159 Safari/537.36",1280,577,1280,720,,,,,,,,8,1.7313,0.350000037,-0.436111139,1,0,0,next_trial_button,0,56,56,26,1,beach,visiblesun,noclouds,3,"888.8888888888888,500",
,,,,,,,gr,gr,gr,m,26,,2021-08-31_17h17.12.139,online_experiment,2021.1.4,Win32,60.10337781,IwAR0lQFiZ_PWPdU-w7FkFuBOCutjUu5qWZCf-XS09OG10azcElXu6O1afCmY,FALSE,,"Mozilla/5.0 (Windows NT 10.0; Win64; x64) AppleWebKit/537.36 (KHTML, like Gecko) Chrome/92.0.4515.159 Safari/537.36",1280,577,1280,720,,,,,,,,9,1.8799,0.396296335,-0.406481508,1,0,0,next_trial_button,0,57,57,17,1,beach,invisiblesun,yesclouds,2,"684.8635235732011,500",
,,,,,,,gr,gr,gr,m,26,,2021-08-31_17h17.12.139,online_experiment,2021.1.4,Win32,60.10337781,IwAR0lQFiZ_PWPdU-w7FkFuBOCutjUu5qWZCf-XS09OG10azcElXu6O1afCmY,FALSE,,"Mozilla/5.0 (Windows NT 10.0; Win64; x64) AppleWebKit/537.36 (KHTML, like Gecko) Chrome/92.0.4515.159 Safari/537.36",1280,577,1280,720,,,,,,,,6,2.521,0.383333371,-0.41759262,1,0,0,next_trial_button,0,58,58,8,1,beach,invisiblesun,noclouds,1,"1215.1898734177216,500",
,,,,,,,gr,gr,gr,m,26,,2021-08-31_17h17.12.139,online_experiment,2021.1.4,Win32,60.10337781,IwAR0lQFiZ_PWPdU-w7FkFuBOCutjUu5qWZCf-XS09OG10azcElXu6O1afCmY,FALSE,,"Mozilla/5.0 (Windows NT 10.0; Win64; x64) AppleWebKit/537.36 (KHTML, like Gecko) Chrome/92.0.4515.159 Safari/537.36",1280,577,1280,720,,,,,,,,8,1.7358,0.338888925,-0.40833336,1,0,0,next_trial_button,0,59,59,61,1,landscape,invisiblesun,yesclouds,7,"500,500",
,,,,,,,gr,gr,gr,m,26,,2021-08-31_17h17.12.139,online_experiment,2021.1.4,Win32,60.10337781,IwAR0lQFiZ_PWPdU-w7FkFuBOCutjUu5qWZCf-XS09OG10azcElXu6O1afCmY,FALSE,,"Mozilla/5.0 (Windows NT 10.0; Win64; x64) AppleWebKit/537.36 (KHTML, like Gecko) Chrome/92.0.4515.159 Safari/537.36",1280,577,1280,720,,,,,,,,8,2.2661,0.425925965,-0.430555583,1,0,0,next_trial_button,0,60,60,4,1,landscape,invisiblesun,noclouds,0,"1276.9171185127807,500",
,,,,,,,gr,gr,gr,m,26,,2021-08-31_17h17.12.139,online_experiment,2021.1.4,Win32,60.10337781,IwAR0lQFiZ_PWPdU-w7FkFuBOCutjUu5qWZCf-XS09OG10azcElXu6O1afCmY,FALSE,,"Mozilla/5.0 (Windows NT 10.0; Win64; x64) AppleWebKit/537.36 (KHTML, like Gecko) Chrome/92.0.4515.159 Safari/537.36",1280,577,1280,720,,,,,,,,7,2.0238,0.366666704,-0.416666694,1,0,0,next_trial_button,0,61,61,69,1,landscape,invisiblesun,yesclouds,8,"750,500",
,,,,,,,gr,gr,gr,m,26,,2021-08-31_17h17.12.139,online_experiment,2021.1.4,Win32,60.10337781,IwAR0lQFiZ_PWPdU-w7FkFuBOCutjUu5qWZCf-XS09OG10azcElXu6O1afCmY,FALSE,,"Mozilla/5.0 (Windows NT 10.0; Win64; x64) AppleWebKit/537.36 (KHTML, like Gecko) Chrome/92.0.4515.159 Safari/537.36",1280,577,1280,720,,,,,,,,6,1.744,0.436111151,-0.434259287,1,0,0,next_trial_button,0,62,62,50,1,beach,visiblesun,noclouds,6,"666.6666666666666,500",
,,,,,,,gr,gr,gr,m,26,,2021-08-31_17h17.12.139,online_experiment,2021.1.4,Win32,60.10337781,IwAR0lQFiZ_PWPdU-w7FkFuBOCutjUu5qWZCf-XS09OG10azcElXu6O1afCmY,FALSE,,"Mozilla/5.0 (Windows NT 10.0; Win64; x64) AppleWebKit/537.36 (KHTML, like Gecko) Chrome/92.0.4515.159 Safari/537.36",1280,577,1280,720,,,,,,,,6,1.9868,0.41574078,-0.409259286,1,0,0,next_trial_button,0,63,63,11,1,beach,visiblesun,yesclouds,1,"989.8132427843803,500",
,,,,,,,gr,gr,gr,m,26,,2021-08-31_17h17.12.139,online_experiment,2021.1.4,Win32,60.10337781,IwAR0lQFiZ_PWPdU-w7FkFuBOCutjUu5qWZCf-XS09OG10azcElXu6O1afCmY,FALSE,,"Mozilla/5.0 (Windows NT 10.0; Win64; x64) AppleWebKit/537.36 (KHTML, like Gecko) Chrome/92.0.4515.159 Safari/537.36",1280,577,1280,720,,,,,,,,6,6.2408,0.368518556,-0.437963047,1,0,0,next_trial_button,0,64,64,20,1,landscape,invisiblesun,noclouds,2,"755.192878338279,500",
,,,,,,,gr,gr,gr,m,26,,2021-08-31_17h17.12.139,online_experiment,2021.1.4,Win32,60.10337781,IwAR0lQFiZ_PWPdU-w7FkFuBOCutjUu5qWZCf-XS09OG10azcElXu6O1afCmY,FALSE,,"Mozilla/5.0 (Windows NT 10.0; Win64; x64) AppleWebKit/537.36 (KHTML, like Gecko) Chrome/92.0.4515.159 Safari/537.36",1280,577,1280,720,,,,,,,,6,1.8545,0.362963,-0.414814842,1,0,0,next_trial_button,0,65,65,49,1,beach,invisiblesun,yesclouds,6,"858.4474885844749,500",
,,,,,,,gr,gr,gr,m,26,,2021-08-31_17h17.12.139,online_experiment,2021.1.4,Win32,60.10337781,IwAR0lQFiZ_PWPdU-w7FkFuBOCutjUu5qWZCf-XS09OG10azcElXu6O1afCmY,FALSE,,"Mozilla/5.0 (Windows NT 10.0; Win64; x64) AppleWebKit/537.36 (KHTML, like Gecko) Chrome/92.0.4515.159 Safari/537.36",1280,577,1280,720,,,,,,,,7,1.6549,0.32407411,-0.423148176,1,0,0,next_trial_button,0,66,66,62,1,landscape,visiblesun,noclouds,7,"417.42389822807814,500",
,,,,,,,gr,gr,gr,m,26,,2021-08-31_17h17.12.139,online_experiment,2021.1.4,Win32,60.10337781,IwAR0lQFiZ_PWPdU-w7FkFuBOCutjUu5qWZCf-XS09OG10azcElXu6O1afCmY,FALSE,,"Mozilla/5.0 (Windows NT 10.0; Win64; x64) AppleWebKit/537.36 (KHTML, like Gecko) Chrome/92.0.4515.159 Safari/537.36",1280,577,1280,720,,,,,,,,7,1.9856,0.387963001,-0.411111138,1,0,0,next_trial_button,0,67,67,54,1,landscape,visiblesun,noclouds,6,"695.0043821209465,500",
,,,,,,,gr,gr,gr,m,26,,2021-08-31_17h17.12.139,online_experiment,2021.1.4,Win32,60.10337781,IwAR0lQFiZ_PWPdU-w7FkFuBOCutjUu5qWZCf-XS09OG10azcElXu6O1afCmY,FALSE,,"Mozilla/5.0 (Windows NT 10.0; Win64; x64) AppleWebKit/537.36 (KHTML, like Gecko) Chrome/92.0.4515.159 Safari/537.36",1280,577,1280,720,,,,,,,,8,1.6531,0.431481521,-0.437963047,1,0,0,next_trial_button,0,68,68,0,1,beach,invisiblesun,noclouds,0,"750,500",
,,,,,,,gr,gr,gr,m,26,,2021-08-31_17h17.12.139,online_experiment,2021.1.4,Win32,60.10337781,IwAR0lQFiZ_PWPdU-w7FkFuBOCutjUu5qWZCf-XS09OG10azcElXu6O1afCmY,FALSE,,"Mozilla/5.0 (Windows NT 10.0; Win64; x64) AppleWebKit/537.36 (KHTML, like Gecko) Chrome/92.0.4515.159 Safari/537.36",1280,577,1280,720,,,,,,,,7,1.5944,0.404629668,-0.433333361,1,0,0,next_trial_button,0,69,69,77,1,landscape,invisiblesun,yesclouds,9,"888.8888888888888,500",
,,,,,,,gr,gr,gr,m,26,,2021-08-31_17h17.12.139,online_experiment,2021.1.4,Win32,60.10337781,IwAR0lQFiZ_PWPdU-w7FkFuBOCutjUu5qWZCf-XS09OG10azcElXu6O1afCmY,FALSE,,"Mozilla/5.0 (Windows NT 10.0; Win64; x64) AppleWebKit/537.36 (KHTML, like Gecko) Chrome/92.0.4515.159 Safari/537.36",1280,577,1280,720,,,,,,,,2,2.4629,0.405555594,-0.399074157,1,0,0,next_trial_button,0,70,70,32,1,beach,invisiblesun,noclouds,4,"750,500",
,,,,,,,gr,gr,gr,m,26,,2021-08-31_17h17.12.139,online_experiment,2021.1.4,Win32,60.10337781,IwAR0lQFiZ_PWPdU-w7FkFuBOCutjUu5qWZCf-XS09OG10azcElXu6O1afCmY,FALSE,,"Mozilla/5.0 (Windows NT 10.0; Win64; x64) AppleWebKit/537.36 (KHTML, like Gecko) Chrome/92.0.4515.159 Safari/537.36",1280,577,1280,720,,,,,,,,6,3.1378,0.32870374,-0.419444472,1,0,0,next_trial_button,0,71,71,42,1,beach,visiblesun,noclouds,5,"834.4594594594595,500",
,,,,,,,gr,gr,gr,m,26,,2021-08-31_17h17.12.139,online_experiment,2021.1.4,Win32,60.10337781,IwAR0lQFiZ_PWPdU-w7FkFuBOCutjUu5qWZCf-XS09OG10azcElXu6O1afCmY,FALSE,,"Mozilla/5.0 (Windows NT 10.0; Win64; x64) AppleWebKit/537.36 (KHTML, like Gecko) Chrome/92.0.4515.159 Safari/537.36",1280,577,1280,720,,,,,,,,6,1.7617,0.337037074,-0.438888917,1,0,0,next_trial_button,0,72,72,34,1,beach,visiblesun,noclouds,4,"749.6251874062968,500",
,,,,,,,gr,gr,gr,m,26,,2021-08-31_17h17.12.139,online_experiment,2021.1.4,Win32,60.10337781,IwAR0lQFiZ_PWPdU-w7FkFuBOCutjUu5qWZCf-XS09OG10azcElXu6O1afCmY,FALSE,,"Mozilla/5.0 (Windows NT 10.0; Win64; x64) AppleWebKit/537.36 (KHTML, like Gecko) Chrome/92.0.4515.159 Safari/537.36",1280,577,1280,720,,,,,,,,7,1.9895,0.351851889,-0.402777805,1,0,0,next_trial_button,0,73,73,21,1,landscape,invisiblesun,yesclouds,2,"750,500",
,,,,,,,gr,gr,gr,m,26,,2021-08-31_17h17.12.139,online_experiment,2021.1.4,Win32,60.10337781,IwAR0lQFiZ_PWPdU-w7FkFuBOCutjUu5qWZCf-XS09OG10azcElXu6O1afCmY,FALSE,,"Mozilla/5.0 (Windows NT 10.0; Win64; x64) AppleWebKit/537.36 (KHTML, like Gecko) Chrome/92.0.4515.159 Safari/537.36",1280,577,1280,720,,,,,,,,2,2.2673,0.36759263,-0.406481508,1,0,0,next_trial_button,0,74,74,28,1,landscape,invisiblesun,noclouds,3,"888.8888888888888,500",
,,,,,,,gr,gr,gr,m,26,,2021-08-31_17h17.12.139,online_experiment,2021.1.4,Win32,60.10337781,IwAR0lQFiZ_PWPdU-w7FkFuBOCutjUu5qWZCf-XS09OG10azcElXu6O1afCmY,FALSE,,"Mozilla/5.0 (Windows NT 10.0; Win64; x64) AppleWebKit/537.36 (KHTML, like Gecko) Chrome/92.0.4515.159 Safari/537.36",1280,577,1280,720,,,,,,,,7,2.005,0.396296335,-0.412037064,1,0,0,next_trial_button,0,75,75,27,1,beach,visiblesun,yesclouds,3,"752.8089887640449,500",
,,,,,,,gr,gr,gr,m,26,,2021-08-31_17h17.12.139,online_experiment,2021.1.4,Win32,60.10337781,IwAR0lQFiZ_PWPdU-w7FkFuBOCutjUu5qWZCf-XS09OG10azcElXu6O1afCmY,FALSE,,"Mozilla/5.0 (Windows NT 10.0; Win64; x64) AppleWebKit/537.36 (KHTML, like Gecko) Chrome/92.0.4515.159 Safari/537.36",1280,577,1280,720,,,,,,,,6,1.8843,0.390740779,-0.402777805,1,0,0,next_trial_button,0,76,76,30,1,landscape,visiblesun,noclouds,3,"346.3035019455253,500",
,,,,,,,gr,gr,gr,m,26,,2021-08-31_17h17.12.139,online_experiment,2021.1.4,Win32,60.10337781,IwAR0lQFiZ_PWPdU-w7FkFuBOCutjUu5qWZCf-XS09OG10azcElXu6O1afCmY,FALSE,,"Mozilla/5.0 (Windows NT 10.0; Win64; x64) AppleWebKit/537.36 (KHTML, like Gecko) Chrome/92.0.4515.159 Safari/537.36",1280,577,1280,720,,,,,,,,1,1.8783,0.385185223,-0.402777805,1,0,0,next_trial_button,0,77,77,60,1,landscape,invisiblesun,noclouds,7,"666.7268134247564,500",
,,,,,,,gr,gr,gr,m,26,,2021-08-31_17h17.12.139,online_experiment,2021.1.4,Win32,60.10337781,IwAR0lQFiZ_PWPdU-w7FkFuBOCutjUu5qWZCf-XS09OG10azcElXu6O1afCmY,FALSE,,"Mozilla/5.0 (Windows NT 10.0; Win64; x64) AppleWebKit/537.36 (KHTML, like Gecko) Chrome/92.0.4515.159 Safari/537.36",1280,577,1280,720,,,,,,,,5,3.1788,0.347222259,-0.397222249,1,0,0,next_trial_button,0,78,78,73,1,beach,invisiblesun,yesclouds,9,"1028.5714285714284,500",
,,,,,,,gr,gr,gr,m,26,,2021-08-31_17h17.12.139,online_experiment,2021.1.4,Win32,60.10337781,IwAR0lQFiZ_PWPdU-w7FkFuBOCutjUu5qWZCf-XS09OG10azcElXu6O1afCmY,FALSE,,"Mozilla/5.0 (Windows NT 10.0; Win64; x64) AppleWebKit/537.36 (KHTML, like Gecko) Chrome/92.0.4515.159 Safari/537.36",1280,577,1280,720,,,,,,,,8,2.1926,0.387037075,-0.384259286,1,0,0,next_trial_button,0,79,79,37,1,landscape,invisiblesun,yesclouds,4,"669.4214876033058,500",
,,,,,,,gr,gr,gr,m,26,,2021-08-31_17h17.12.139,online_experiment,2021.1.4,Win32,60.10337781,IwAR0lQFiZ_PWPdU-w7FkFuBOCutjUu5qWZCf-XS09OG10azcElXu6O1afCmY,FALSE,,"Mozilla/5.0 (Windows NT 10.0; Win64; x64) AppleWebKit/537.36 (KHTML, like Gecko) Chrome/92.0.4515.159 Safari/537.36",1280,577,1280,720,,,,,,,,,,,,,,,,,,,,,,,,,"669.4214876033058,500",295.2702
