language_mouse.x,language_mouse.y,language_mouse.leftButton,language_mouse.midButton,language_mouse.rightButton,language_mouse.time,language_mouse.clicked_name,nationality,mother_tongue,homeland,gender,age,email,date,expName,psychopyVersion,OS,frameRate,cancel_experiment,cancel_reasons,client_agent_information,windowWidth,windowHeight,xRes,yRes,start_exp_mouse.x,start_exp_mouse.y,start_exp_mouse.leftButton,start_exp_mouse.midButton,start_exp_mouse.rightButton,start_exp_mouse.time,start_exp_mouse.clicked_name,rating_slider.response,rating_slider.rt,next_trial_mouse.x,next_trial_mouse.y,next_trial_mouse.leftButton,next_trial_mouse.midButton,next_trial_mouse.rightButton,next_trial_mouse.clicked_name,trials.thisRepN,trials.thisTrialN,trials.thisN,trials.thisIndex,trials.ran,environment,sunVisibility,cloudVisibility,imageId,imgSize,globalClockTime
-0.287573785,-0.22546875,1,0,0,0.5665,de_flag,de,de,de,m,31,,2021-08-12_17h09.50.173,online_experiment,2021.1.4,MacIntel,60.0024001,FALSE,,"Mozilla/5.0 (Macintosh; Intel Mac OS X 10_15_7) AppleWebKit/537.36 (KHTML, like Gecko) Chrome/92.0.4515.131 Safari/537.36",1440,676,1440,900,,,,,,,,,,,,,,,,,,,,,,,,,,
,,,,,,,de,de,de,m,31,,2021-08-12_17h09.50.173,online_experiment,2021.1.4,MacIntel,60.0024001,FALSE,,"Mozilla/5.0 (Macintosh; Intel Mac OS X 10_15_7) AppleWebKit/537.36 (KHTML, like Gecko) Chrome/92.0.4515.131 Safari/537.36",1440,676,1440,900,0.03140191,-0.417430556,1,0,0,1.4171,cont_gr,5,2.8811,0.390460069,-0.429826389,1,0,0,next_trial_button,0,0,0,0,1,beach,invisiblesun,noclouds,0,"750,500",
,,,,,,,de,de,de,m,31,,2021-08-12_17h09.50.173,online_experiment,2021.1.4,MacIntel,60.0024001,FALSE,,"Mozilla/5.0 (Macintosh; Intel Mac OS X 10_15_7) AppleWebKit/537.36 (KHTML, like Gecko) Chrome/92.0.4515.131 Safari/537.36",1440,676,1440,900,,,,,,,,9,2.8299,0.390668403,-0.418155382,1,0,0,next_trial_button,0,1,1,14,1,landscape,visiblesun,noclouds,1,"745.9919839679359,500",
,,,,,,,de,de,de,m,31,,2021-08-12_17h09.50.173,online_experiment,2021.1.4,MacIntel,60.0024001,FALSE,,"Mozilla/5.0 (Macintosh; Intel Mac OS X 10_15_7) AppleWebKit/537.36 (KHTML, like Gecko) Chrome/92.0.4515.131 Safari/537.36",1440,676,1440,900,,,,,,,,10,1.5803,0.483806424,-0.409236111,1,0,0,next_trial_button,0,2,2,37,1,landscape,invisiblesun,yesclouds,4,"669.4214876033058,500",
,,,,,,,de,de,de,m,31,,2021-08-12_17h09.50.173,online_experiment,2021.1.4,MacIntel,60.0024001,FALSE,,"Mozilla/5.0 (Macintosh; Intel Mac OS X 10_15_7) AppleWebKit/537.36 (KHTML, like Gecko) Chrome/92.0.4515.131 Safari/537.36",1440,676,1440,900,,,,,,,,10,1.8976,0.532599826,-0.419947917,1,0,0,next_trial_button,0,3,3,40,1,beach,invisiblesun,noclouds,5,"1028.5714285714284,500",
,,,,,,,de,de,de,m,31,,2021-08-12_17h09.50.173,online_experiment,2021.1.4,MacIntel,60.0024001,FALSE,,"Mozilla/5.0 (Macintosh; Intel Mac OS X 10_15_7) AppleWebKit/537.36 (KHTML, like Gecko) Chrome/92.0.4515.131 Safari/537.36",1440,676,1440,900,,,,,,,,5,2.4808,0.504040799,-0.438012153,1,0,0,next_trial_button,0,4,4,8,1,beach,invisiblesun,noclouds,1,"1215.1898734177216,500",
,,,,,,,de,de,de,m,31,,2021-08-12_17h09.50.173,online_experiment,2021.1.4,MacIntel,60.0024001,FALSE,,"Mozilla/5.0 (Macintosh; Intel Mac OS X 10_15_7) AppleWebKit/537.36 (KHTML, like Gecko) Chrome/92.0.4515.131 Safari/537.36",1440,676,1440,900,,,,,,,,2,1.9892,0.514574653,-0.445555556,1,0,0,next_trial_button,0,5,5,28,1,landscape,invisiblesun,noclouds,3,"888.8888888888888,500",
,,,,,,,de,de,de,m,31,,2021-08-12_17h09.50.173,online_experiment,2021.1.4,MacIntel,60.0024001,FALSE,,"Mozilla/5.0 (Macintosh; Intel Mac OS X 10_15_7) AppleWebKit/537.36 (KHTML, like Gecko) Chrome/92.0.4515.131 Safari/537.36",1440,676,1440,900,,,,,,,,5,3.2602,0.420681424,-0.455577257,1,0,0,next_trial_button,0,6,6,56,1,beach,invisiblesun,noclouds,7,"1028.5714285714284,500",
,,,,,,,de,de,de,m,31,,2021-08-12_17h09.50.173,online_experiment,2021.1.4,MacIntel,60.0024001,FALSE,,"Mozilla/5.0 (Macintosh; Intel Mac OS X 10_15_7) AppleWebKit/537.36 (KHTML, like Gecko) Chrome/92.0.4515.131 Safari/537.36",1440,676,1440,900,,,,,,,,6,3.3983,0.446623264,-0.398828125,1,0,0,next_trial_button,0,7,7,74,1,beach,visiblesun,noclouds,9,"1028.5714285714284,500",
,,,,,,,de,de,de,m,31,,2021-08-12_17h09.50.173,online_experiment,2021.1.4,MacIntel,60.0024001,FALSE,,"Mozilla/5.0 (Macintosh; Intel Mac OS X 10_15_7) AppleWebKit/537.36 (KHTML, like Gecko) Chrome/92.0.4515.131 Safari/537.36",1440,676,1440,900,,,,,,,,3,2.1967,0.43671441,-0.443880208,1,0,0,next_trial_button,0,8,8,39,1,landscape,visiblesun,yesclouds,4,"749.7656982193065,500",
,,,,,,,de,de,de,m,31,,2021-08-12_17h09.50.173,online_experiment,2021.1.4,MacIntel,60.0024001,FALSE,,"Mozilla/5.0 (Macintosh; Intel Mac OS X 10_15_7) AppleWebKit/537.36 (KHTML, like Gecko) Chrome/92.0.4515.131 Safari/537.36",1440,676,1440,900,,,,,,,,8,1.4872,0.427248264,-0.402565104,1,0,0,next_trial_button,0,9,9,23,1,landscape,visiblesun,yesclouds,2,"767.97829036635,500",
,,,,,,,de,de,de,m,31,,2021-08-12_17h09.50.173,online_experiment,2021.1.4,MacIntel,60.0024001,FALSE,,"Mozilla/5.0 (Macintosh; Intel Mac OS X 10_15_7) AppleWebKit/537.36 (KHTML, like Gecko) Chrome/92.0.4515.131 Safari/537.36",1440,676,1440,900,,,,,,,,3,3.5199,0.317690972,-0.413771701,1,0,0,next_trial_button,0,10,10,13,1,landscape,invisiblesun,yesclouds,1,"783.1192660550458,500",
,,,,,,,de,de,de,m,31,,2021-08-12_17h09.50.173,online_experiment,2021.1.4,MacIntel,60.0024001,FALSE,,"Mozilla/5.0 (Macintosh; Intel Mac OS X 10_15_7) AppleWebKit/537.36 (KHTML, like Gecko) Chrome/92.0.4515.131 Safari/537.36",1440,676,1440,900,,,,,,,,2,1.6978,0.407894965,-0.429735243,1,0,0,next_trial_button,0,11,11,44,1,landscape,invisiblesun,noclouds,5,"666.6666666666666,500",
,,,,,,,de,de,de,m,31,,2021-08-12_17h09.50.173,online_experiment,2021.1.4,MacIntel,60.0024001,FALSE,,"Mozilla/5.0 (Macintosh; Intel Mac OS X 10_15_7) AppleWebKit/537.36 (KHTML, like Gecko) Chrome/92.0.4515.131 Safari/537.36",1440,676,1440,900,,,,,,,,5,2.1722,0.309006076,-0.422478299,1,0,0,next_trial_button,0,12,12,35,1,beach,visiblesun,yesclouds,4,"750,500",
,,,,,,,de,de,de,m,31,,2021-08-12_17h09.50.173,online_experiment,2021.1.4,MacIntel,60.0024001,FALSE,,"Mozilla/5.0 (Macintosh; Intel Mac OS X 10_15_7) AppleWebKit/537.36 (KHTML, like Gecko) Chrome/92.0.4515.131 Safari/537.36",1440,676,1440,900,,,,,,,,7,2.5307,0.38703559,-0.413181424,1,0,0,next_trial_button,0,13,13,21,1,landscape,invisiblesun,yesclouds,2,"750,500",
,,,,,,,de,de,de,m,31,,2021-08-12_17h09.50.173,online_experiment,2021.1.4,MacIntel,60.0024001,FALSE,,"Mozilla/5.0 (Macintosh; Intel Mac OS X 10_15_7) AppleWebKit/537.36 (KHTML, like Gecko) Chrome/92.0.4515.131 Safari/537.36",1440,676,1440,900,,,,,,,,4,1.8222,0.450668403,-0.431484375,1,0,0,next_trial_button,0,14,14,48,1,beach,invisiblesun,noclouds,6,"1028.5714285714284,500",
,,,,,,,de,de,de,m,31,,2021-08-12_17h09.50.173,online_experiment,2021.1.4,MacIntel,60.0024001,FALSE,,"Mozilla/5.0 (Macintosh; Intel Mac OS X 10_15_7) AppleWebKit/537.36 (KHTML, like Gecko) Chrome/92.0.4515.131 Safari/537.36",1440,676,1440,900,,,,,,,,6,1.7933,0.446124132,-0.423042535,1,0,0,next_trial_button,0,15,15,75,1,beach,visiblesun,yesclouds,9,"1029.6010296010297,500",
,,,,,,,de,de,de,m,31,,2021-08-12_17h09.50.173,online_experiment,2021.1.4,MacIntel,60.0024001,FALSE,,"Mozilla/5.0 (Macintosh; Intel Mac OS X 10_15_7) AppleWebKit/537.36 (KHTML, like Gecko) Chrome/92.0.4515.131 Safari/537.36",1440,676,1440,900,,,,,,,,8,1.6947,0.505303819,-0.416545139,1,0,0,next_trial_button,0,16,16,10,1,beach,visiblesun,noclouds,1,"747.0261697065821,500",
,,,,,,,de,de,de,m,31,,2021-08-12_17h09.50.173,online_experiment,2021.1.4,MacIntel,60.0024001,FALSE,,"Mozilla/5.0 (Macintosh; Intel Mac OS X 10_15_7) AppleWebKit/537.36 (KHTML, like Gecko) Chrome/92.0.4515.131 Safari/537.36",1440,676,1440,900,,,,,,,,10,1.8973,0.496684028,-0.444492188,1,0,0,next_trial_button,0,17,17,16,1,beach,invisiblesun,noclouds,2,"752.8089887640449,500",
,,,,,,,de,de,de,m,31,,2021-08-12_17h09.50.173,online_experiment,2021.1.4,MacIntel,60.0024001,FALSE,,"Mozilla/5.0 (Macintosh; Intel Mac OS X 10_15_7) AppleWebKit/537.36 (KHTML, like Gecko) Chrome/92.0.4515.131 Safari/537.36",1440,676,1440,900,,,,,,,,7,2.9984,0.359930556,-0.436050347,1,0,0,next_trial_button,0,18,18,20,1,landscape,invisiblesun,noclouds,2,"755.192878338279,500",
,,,,,,,de,de,de,m,31,,2021-08-12_17h09.50.173,online_experiment,2021.1.4,MacIntel,60.0024001,FALSE,,"Mozilla/5.0 (Macintosh; Intel Mac OS X 10_15_7) AppleWebKit/537.36 (KHTML, like Gecko) Chrome/92.0.4515.131 Safari/537.36",1440,676,1440,900,,,,,,,,4,1.8477,0.343459201,-0.445026042,1,0,0,next_trial_button,0,19,19,5,1,landscape,invisiblesun,yesclouds,0,"750.4690431519699,500",
,,,,,,,de,de,de,m,31,,2021-08-12_17h09.50.173,online_experiment,2021.1.4,MacIntel,60.0024001,FALSE,,"Mozilla/5.0 (Macintosh; Intel Mac OS X 10_15_7) AppleWebKit/537.36 (KHTML, like Gecko) Chrome/92.0.4515.131 Safari/537.36",1440,676,1440,900,,,,,,,,5,1.8258,0.409496528,-0.41983941,1,0,0,next_trial_button,0,20,20,26,1,beach,visiblesun,noclouds,3,"888.8888888888888,500",
,,,,,,,de,de,de,m,31,,2021-08-12_17h09.50.173,online_experiment,2021.1.4,MacIntel,60.0024001,FALSE,,"Mozilla/5.0 (Macintosh; Intel Mac OS X 10_15_7) AppleWebKit/537.36 (KHTML, like Gecko) Chrome/92.0.4515.131 Safari/537.36",1440,676,1440,900,,,,,,,,7,1.5551,0.419175347,-0.432990451,1,0,0,next_trial_button,0,21,21,70,1,landscape,visiblesun,noclouds,8,"666.6666666666666,500",
,,,,,,,de,de,de,m,31,,2021-08-12_17h09.50.173,online_experiment,2021.1.4,MacIntel,60.0024001,FALSE,,"Mozilla/5.0 (Macintosh; Intel Mac OS X 10_15_7) AppleWebKit/537.36 (KHTML, like Gecko) Chrome/92.0.4515.131 Safari/537.36",1440,676,1440,900,,,,,,,,9,3.3278,0.408702257,-0.421128472,1,0,0,next_trial_button,0,22,22,34,1,beach,visiblesun,noclouds,4,"749.6251874062968,500",
,,,,,,,de,de,de,m,31,,2021-08-12_17h09.50.173,online_experiment,2021.1.4,MacIntel,60.0024001,FALSE,,"Mozilla/5.0 (Macintosh; Intel Mac OS X 10_15_7) AppleWebKit/537.36 (KHTML, like Gecko) Chrome/92.0.4515.131 Safari/537.36",1440,676,1440,900,,,,,,,,1,2.3593,0.356241319,-0.430347222,1,0,0,next_trial_button,0,23,23,60,1,landscape,invisiblesun,noclouds,7,"666.7268134247564,500",
,,,,,,,de,de,de,m,31,,2021-08-12_17h09.50.173,online_experiment,2021.1.4,MacIntel,60.0024001,FALSE,,"Mozilla/5.0 (Macintosh; Intel Mac OS X 10_15_7) AppleWebKit/537.36 (KHTML, like Gecko) Chrome/92.0.4515.131 Safari/537.36",1440,676,1440,900,,,,,,,,8,1.6767,0.456471354,-0.419487847,1,0,0,next_trial_button,0,24,24,29,1,landscape,invisiblesun,yesclouds,3,"749.8660953401178,500",
,,,,,,,de,de,de,m,31,,2021-08-12_17h09.50.173,online_experiment,2021.1.4,MacIntel,60.0024001,FALSE,,"Mozilla/5.0 (Macintosh; Intel Mac OS X 10_15_7) AppleWebKit/537.36 (KHTML, like Gecko) Chrome/92.0.4515.131 Safari/537.36",1440,676,1440,900,,,,,,,,7,1.7101,0.463363715,-0.412556424,1,0,0,next_trial_button,0,25,25,67,1,beach,visiblesun,yesclouds,8,"748.1481481481482,500",
,,,,,,,de,de,de,m,31,,2021-08-12_17h09.50.173,online_experiment,2021.1.4,MacIntel,60.0024001,FALSE,,"Mozilla/5.0 (Macintosh; Intel Mac OS X 10_15_7) AppleWebKit/537.36 (KHTML, like Gecko) Chrome/92.0.4515.131 Safari/537.36",1440,676,1440,900,,,,,,,,8,2.1805,0.43187066,-0.402695313,1,0,0,next_trial_button,0,26,26,51,1,beach,visiblesun,yesclouds,6,"657.1279916753382,500",
,,,,,,,de,de,de,m,31,,2021-08-12_17h09.50.173,online_experiment,2021.1.4,MacIntel,60.0024001,FALSE,,"Mozilla/5.0 (Macintosh; Intel Mac OS X 10_15_7) AppleWebKit/537.36 (KHTML, like Gecko) Chrome/92.0.4515.131 Safari/537.36",1440,676,1440,900,,,,,,,,4,1.3924,0.474088542,-0.423342014,1,0,0,next_trial_button,0,27,27,36,1,landscape,invisiblesun,noclouds,4,"281.25,500",
,,,,,,,de,de,de,m,31,,2021-08-12_17h09.50.173,online_experiment,2021.1.4,MacIntel,60.0024001,FALSE,,"Mozilla/5.0 (Macintosh; Intel Mac OS X 10_15_7) AppleWebKit/537.36 (KHTML, like Gecko) Chrome/92.0.4515.131 Safari/537.36",1440,676,1440,900,,,,,,,,8,2.0719,0.411992187,-0.436857639,1,0,0,next_trial_button,0,28,28,79,1,landscape,visiblesun,yesclouds,9,"1028.5714285714284,500",
,,,,,,,de,de,de,m,31,,2021-08-12_17h09.50.173,online_experiment,2021.1.4,MacIntel,60.0024001,FALSE,,"Mozilla/5.0 (Macintosh; Intel Mac OS X 10_15_7) AppleWebKit/537.36 (KHTML, like Gecko) Chrome/92.0.4515.131 Safari/537.36",1440,676,1440,900,,,,,,,,9,1.7725,0.308971354,-0.423020833,1,0,0,next_trial_button,0,29,29,6,1,landscape,visiblesun,noclouds,0,"1413.8005159071367,500",
,,,,,,,de,de,de,m,31,,2021-08-12_17h09.50.173,online_experiment,2021.1.4,MacIntel,60.0024001,FALSE,,"Mozilla/5.0 (Macintosh; Intel Mac OS X 10_15_7) AppleWebKit/537.36 (KHTML, like Gecko) Chrome/92.0.4515.131 Safari/537.36",1440,676,1440,900,,,,,,,,9,1.9984,0.488563368,-0.424301215,1,0,0,next_trial_button,0,30,30,53,1,landscape,invisiblesun,yesclouds,6,"750.0695023630803,500",
,,,,,,,de,de,de,m,31,,2021-08-12_17h09.50.173,online_experiment,2021.1.4,MacIntel,60.0024001,FALSE,,"Mozilla/5.0 (Macintosh; Intel Mac OS X 10_15_7) AppleWebKit/537.36 (KHTML, like Gecko) Chrome/92.0.4515.131 Safari/537.36",1440,676,1440,900,,,,,,,,5,1.8378,0.404231771,-0.388676215,0,0,1,next_trial_button,0,31,31,24,1,beach,invisiblesun,noclouds,3,"750.089190153407,500",
,,,,,,,de,de,de,m,31,,2021-08-12_17h09.50.173,online_experiment,2021.1.4,MacIntel,60.0024001,FALSE,,"Mozilla/5.0 (Macintosh; Intel Mac OS X 10_15_7) AppleWebKit/537.36 (KHTML, like Gecko) Chrome/92.0.4515.131 Safari/537.36",1440,676,1440,900,,,,,,,,8,1.8563,0.374626736,-0.414023437,1,0,0,next_trial_button,0,32,32,78,1,landscape,visiblesun,noclouds,9,"666.6666666666666,500",
,,,,,,,de,de,de,m,31,,2021-08-12_17h09.50.173,online_experiment,2021.1.4,MacIntel,60.0024001,FALSE,,"Mozilla/5.0 (Macintosh; Intel Mac OS X 10_15_7) AppleWebKit/537.36 (KHTML, like Gecko) Chrome/92.0.4515.131 Safari/537.36",1440,676,1440,900,,,,,,,,4,1.7134,0.402013889,-0.41891059,1,0,0,next_trial_button,0,33,33,2,1,beach,visiblesun,noclouds,0,"375,500",
,,,,,,,de,de,de,m,31,,2021-08-12_17h09.50.173,online_experiment,2021.1.4,MacIntel,60.0024001,FALSE,,"Mozilla/5.0 (Macintosh; Intel Mac OS X 10_15_7) AppleWebKit/537.36 (KHTML, like Gecko) Chrome/92.0.4515.131 Safari/537.36",1440,676,1440,900,,,,,,,,9,1.5925,0.357981771,-0.425338542,1,0,0,next_trial_button,0,34,34,64,1,beach,invisiblesun,noclouds,8,"1028.5714285714284,500",
,,,,,,,de,de,de,m,31,,2021-08-12_17h09.50.173,online_experiment,2021.1.4,MacIntel,60.0024001,FALSE,,"Mozilla/5.0 (Macintosh; Intel Mac OS X 10_15_7) AppleWebKit/537.36 (KHTML, like Gecko) Chrome/92.0.4515.131 Safari/537.36",1440,676,1440,900,,,,,,,,9,1.5441,0.489405382,-0.419283854,1,0,0,next_trial_button,0,35,35,1,1,beach,invisiblesun,yesclouds,0,"666.6666666666666,500",
,,,,,,,de,de,de,m,31,,2021-08-12_17h09.50.173,online_experiment,2021.1.4,MacIntel,60.0024001,FALSE,,"Mozilla/5.0 (Macintosh; Intel Mac OS X 10_15_7) AppleWebKit/537.36 (KHTML, like Gecko) Chrome/92.0.4515.131 Safari/537.36",1440,676,1440,900,,,,,,,,5,1.6244,0.510039062,-0.439361979,1,0,0,next_trial_button,0,36,36,59,1,beach,visiblesun,yesclouds,7,"888.9689978370584,500",
,,,,,,,de,de,de,m,31,,2021-08-12_17h09.50.173,online_experiment,2021.1.4,MacIntel,60.0024001,FALSE,,"Mozilla/5.0 (Macintosh; Intel Mac OS X 10_15_7) AppleWebKit/537.36 (KHTML, like Gecko) Chrome/92.0.4515.131 Safari/537.36",1440,676,1440,900,,,,,,,,9,1.4944,0.389045139,-0.409314236,1,0,0,next_trial_button,0,37,37,43,1,beach,visiblesun,yesclouds,5,"750,500",
,,,,,,,de,de,de,m,31,,2021-08-12_17h09.50.173,online_experiment,2021.1.4,MacIntel,60.0024001,FALSE,,"Mozilla/5.0 (Macintosh; Intel Mac OS X 10_15_7) AppleWebKit/537.36 (KHTML, like Gecko) Chrome/92.0.4515.131 Safari/537.36",1440,676,1440,900,,,,,,,,8,2.0651,0.414327257,-0.429908854,1,0,0,next_trial_button,0,38,38,58,1,beach,visiblesun,noclouds,7,"1028.5714285714284,500",
,,,,,,,de,de,de,m,31,,2021-08-12_17h09.50.173,online_experiment,2021.1.4,MacIntel,60.0024001,FALSE,,"Mozilla/5.0 (Macintosh; Intel Mac OS X 10_15_7) AppleWebKit/537.36 (KHTML, like Gecko) Chrome/92.0.4515.131 Safari/537.36",1440,676,1440,900,,,,,,,,8,1.69,0.352400174,-0.421124132,1,0,0,next_trial_button,0,39,39,9,1,beach,invisiblesun,yesclouds,1,"750,500",
,,,,,,,de,de,de,m,31,,2021-08-12_17h09.50.173,online_experiment,2021.1.4,MacIntel,60.0024001,FALSE,,"Mozilla/5.0 (Macintosh; Intel Mac OS X 10_15_7) AppleWebKit/537.36 (KHTML, like Gecko) Chrome/92.0.4515.131 Safari/537.36",1440,676,1440,900,,,,,,,,6,1.5564,0.47641059,-0.425850694,1,0,0,next_trial_button,0,40,40,18,1,beach,visiblesun,noclouds,2,"666.6666666666666,500",
,,,,,,,de,de,de,m,31,,2021-08-12_17h09.50.173,online_experiment,2021.1.4,MacIntel,60.0024001,FALSE,,"Mozilla/5.0 (Macintosh; Intel Mac OS X 10_15_7) AppleWebKit/537.36 (KHTML, like Gecko) Chrome/92.0.4515.131 Safari/537.36",1440,676,1440,900,,,,,,,,8,1.481,0.5240625,-0.408971354,1,0,0,next_trial_button,0,41,41,31,1,landscape,visiblesun,yesclouds,3,"638.0622837370242,500",
,,,,,,,de,de,de,m,31,,2021-08-12_17h09.50.173,online_experiment,2021.1.4,MacIntel,60.0024001,FALSE,,"Mozilla/5.0 (Macintosh; Intel Mac OS X 10_15_7) AppleWebKit/537.36 (KHTML, like Gecko) Chrome/92.0.4515.131 Safari/537.36",1440,676,1440,900,,,,,,,,6,1.9407,0.486896701,-0.418346354,1,0,0,next_trial_button,0,42,42,32,1,beach,invisiblesun,noclouds,4,"750,500",
,,,,,,,de,de,de,m,31,,2021-08-12_17h09.50.173,online_experiment,2021.1.4,MacIntel,60.0024001,FALSE,,"Mozilla/5.0 (Macintosh; Intel Mac OS X 10_15_7) AppleWebKit/537.36 (KHTML, like Gecko) Chrome/92.0.4515.131 Safari/537.36",1440,676,1440,900,,,,,,,,4,2.5504,0.501271701,-0.416744792,1,0,0,next_trial_button,0,43,43,33,1,beach,invisiblesun,yesclouds,4,"751.5473032714411,500",
,,,,,,,de,de,de,m,31,,2021-08-12_17h09.50.173,online_experiment,2021.1.4,MacIntel,60.0024001,FALSE,,"Mozilla/5.0 (Macintosh; Intel Mac OS X 10_15_7) AppleWebKit/537.36 (KHTML, like Gecko) Chrome/92.0.4515.131 Safari/537.36",1440,676,1440,900,,,,,,,,7,1.481,0.350329861,-0.409084201,1,0,0,next_trial_button,0,44,44,3,1,beach,visiblesun,yesclouds,0,"1152.5122276567363,500",
,,,,,,,de,de,de,m,31,,2021-08-12_17h09.50.173,online_experiment,2021.1.4,MacIntel,60.0024001,FALSE,,"Mozilla/5.0 (Macintosh; Intel Mac OS X 10_15_7) AppleWebKit/537.36 (KHTML, like Gecko) Chrome/92.0.4515.131 Safari/537.36",1440,676,1440,900,,,,,,,,10,3.394,0.447356771,-0.419878472,1,0,0,next_trial_button,0,45,45,46,1,landscape,visiblesun,noclouds,5,"750,500",
,,,,,,,de,de,de,m,31,,2021-08-12_17h09.50.173,online_experiment,2021.1.4,MacIntel,60.0024001,FALSE,,"Mozilla/5.0 (Macintosh; Intel Mac OS X 10_15_7) AppleWebKit/537.36 (KHTML, like Gecko) Chrome/92.0.4515.131 Safari/537.36",1440,676,1440,900,,,,,,,,10,1.857,0.370525174,-0.40437066,1,0,0,next_trial_button,0,46,46,45,1,landscape,invisiblesun,yesclouds,5,"749.6251874062968,500",
,,,,,,,de,de,de,m,31,,2021-08-12_17h09.50.173,online_experiment,2021.1.4,MacIntel,60.0024001,FALSE,,"Mozilla/5.0 (Macintosh; Intel Mac OS X 10_15_7) AppleWebKit/537.36 (KHTML, like Gecko) Chrome/92.0.4515.131 Safari/537.36",1440,676,1440,900,,,,,,,,8,1.6273,0.368324653,-0.396341146,1,0,0,next_trial_button,0,47,47,12,1,landscape,invisiblesun,noclouds,1,"666.6666666666666,500",
,,,,,,,de,de,de,m,31,,2021-08-12_17h09.50.173,online_experiment,2021.1.4,MacIntel,60.0024001,FALSE,,"Mozilla/5.0 (Macintosh; Intel Mac OS X 10_15_7) AppleWebKit/537.36 (KHTML, like Gecko) Chrome/92.0.4515.131 Safari/537.36",1440,676,1440,900,,,,,,,,9,1.5952,0.485447049,-0.421597222,1,0,0,next_trial_button,0,48,48,50,1,beach,visiblesun,noclouds,6,"666.6666666666666,500",
,,,,,,,de,de,de,m,31,,2021-08-12_17h09.50.173,online_experiment,2021.1.4,MacIntel,60.0024001,FALSE,,"Mozilla/5.0 (Macintosh; Intel Mac OS X 10_15_7) AppleWebKit/537.36 (KHTML, like Gecko) Chrome/92.0.4515.131 Safari/537.36",1440,676,1440,900,,,,,,,,6,1.5388,0.353728299,-0.404952257,1,0,0,next_trial_button,0,49,49,76,1,landscape,invisiblesun,noclouds,9,"1056.6037735849056,500",
,,,,,,,de,de,de,m,31,,2021-08-12_17h09.50.173,online_experiment,2021.1.4,MacIntel,60.0024001,FALSE,,"Mozilla/5.0 (Macintosh; Intel Mac OS X 10_15_7) AppleWebKit/537.36 (KHTML, like Gecko) Chrome/92.0.4515.131 Safari/537.36",1440,676,1440,900,,,,,,,,8,1.5487,0.44,-0.420026042,1,0,0,next_trial_button,0,50,50,52,1,landscape,invisiblesun,noclouds,6,"666.6666666666666,500",
,,,,,,,de,de,de,m,31,,2021-08-12_17h09.50.173,online_experiment,2021.1.4,MacIntel,60.0024001,FALSE,,"Mozilla/5.0 (Macintosh; Intel Mac OS X 10_15_7) AppleWebKit/537.36 (KHTML, like Gecko) Chrome/92.0.4515.131 Safari/537.36",1440,676,1440,900,,,,,,,,9,1.477,0.458767361,-0.415490451,1,0,0,next_trial_button,0,51,51,42,1,beach,visiblesun,noclouds,5,"834.4594594594595,500",
,,,,,,,de,de,de,m,31,,2021-08-12_17h09.50.173,online_experiment,2021.1.4,MacIntel,60.0024001,FALSE,,"Mozilla/5.0 (Macintosh; Intel Mac OS X 10_15_7) AppleWebKit/537.36 (KHTML, like Gecko) Chrome/92.0.4515.131 Safari/537.36",1440,676,1440,900,,,,,,,,6,1.7891,0.443272569,-0.416241319,1,0,0,next_trial_button,0,52,52,71,1,landscape,visiblesun,yesclouds,8,"666.6666666666666,500",
,,,,,,,de,de,de,m,31,,2021-08-12_17h09.50.173,online_experiment,2021.1.4,MacIntel,60.0024001,FALSE,,"Mozilla/5.0 (Macintosh; Intel Mac OS X 10_15_7) AppleWebKit/537.36 (KHTML, like Gecko) Chrome/92.0.4515.131 Safari/537.36",1440,676,1440,900,,,,,,,,9,2.3232,0.364626736,-0.42140191,1,0,0,next_trial_button,0,53,53,57,1,beach,invisiblesun,yesclouds,7,"749.707488299532,500",
,,,,,,,de,de,de,m,31,,2021-08-12_17h09.50.173,online_experiment,2021.1.4,MacIntel,60.0024001,FALSE,,"Mozilla/5.0 (Macintosh; Intel Mac OS X 10_15_7) AppleWebKit/537.36 (KHTML, like Gecko) Chrome/92.0.4515.131 Safari/537.36",1440,676,1440,900,,,,,,,,7,1.4809,0.487178819,-0.416072049,1,0,0,next_trial_button,0,54,54,54,1,landscape,visiblesun,noclouds,6,"695.0043821209465,500",
,,,,,,,de,de,de,m,31,,2021-08-12_17h09.50.173,online_experiment,2021.1.4,MacIntel,60.0024001,FALSE,,"Mozilla/5.0 (Macintosh; Intel Mac OS X 10_15_7) AppleWebKit/537.36 (KHTML, like Gecko) Chrome/92.0.4515.131 Safari/537.36",1440,676,1440,900,,,,,,,,4,2.521,0.407126736,-0.424331597,1,0,0,next_trial_button,0,55,55,38,1,landscape,visiblesun,noclouds,4,"733.3333333333333,500",
,,,,,,,de,de,de,m,31,,2021-08-12_17h09.50.173,online_experiment,2021.1.4,MacIntel,60.0024001,FALSE,,"Mozilla/5.0 (Macintosh; Intel Mac OS X 10_15_7) AppleWebKit/537.36 (KHTML, like Gecko) Chrome/92.0.4515.131 Safari/537.36",1440,676,1440,900,,,,,,,,6,1.5947,0.328893229,-0.438294271,1,0,0,next_trial_button,0,56,56,65,1,beach,invisiblesun,yesclouds,8,"750,500",
,,,,,,,de,de,de,m,31,,2021-08-12_17h09.50.173,online_experiment,2021.1.4,MacIntel,60.0024001,FALSE,,"Mozilla/5.0 (Macintosh; Intel Mac OS X 10_15_7) AppleWebKit/537.36 (KHTML, like Gecko) Chrome/92.0.4515.131 Safari/537.36",1440,676,1440,900,,,,,,,,4,1.6408,0.425091146,-0.421749132,1,0,0,next_trial_button,0,57,57,72,1,beach,invisiblesun,noclouds,9,"888.8888888888888,500",
,,,,,,,de,de,de,m,31,,2021-08-12_17h09.50.173,online_experiment,2021.1.4,MacIntel,60.0024001,FALSE,,"Mozilla/5.0 (Macintosh; Intel Mac OS X 10_15_7) AppleWebKit/537.36 (KHTML, like Gecko) Chrome/92.0.4515.131 Safari/537.36",1440,676,1440,900,,,,,,,,8,1.8792,0.486736111,-0.422894965,1,0,0,next_trial_button,0,58,58,17,1,beach,invisiblesun,yesclouds,2,"684.8635235732011,500",
,,,,,,,de,de,de,m,31,,2021-08-12_17h09.50.173,online_experiment,2021.1.4,MacIntel,60.0024001,FALSE,,"Mozilla/5.0 (Macintosh; Intel Mac OS X 10_15_7) AppleWebKit/537.36 (KHTML, like Gecko) Chrome/92.0.4515.131 Safari/537.36",1440,676,1440,900,,,,,,,,5,2.0399,0.307356771,-0.414756944,1,0,0,next_trial_button,0,59,59,15,1,landscape,visiblesun,yesclouds,1,"333.3333333333333,500",
,,,,,,,de,de,de,m,31,,2021-08-12_17h09.50.173,online_experiment,2021.1.4,MacIntel,60.0024001,FALSE,,"Mozilla/5.0 (Macintosh; Intel Mac OS X 10_15_7) AppleWebKit/537.36 (KHTML, like Gecko) Chrome/92.0.4515.131 Safari/537.36",1440,676,1440,900,,,,,,,,8,1.6878,0.400546875,-0.415555556,1,0,0,next_trial_button,0,60,60,55,1,landscape,visiblesun,yesclouds,6,"749.8819083608881,500",
,,,,,,,de,de,de,m,31,,2021-08-12_17h09.50.173,online_experiment,2021.1.4,MacIntel,60.0024001,FALSE,,"Mozilla/5.0 (Macintosh; Intel Mac OS X 10_15_7) AppleWebKit/537.36 (KHTML, like Gecko) Chrome/92.0.4515.131 Safari/537.36",1440,676,1440,900,,,,,,,,8,1.7784,0.372196181,-0.449431424,1,0,0,next_trial_button,0,61,61,77,1,landscape,invisiblesun,yesclouds,9,"888.8888888888888,500",
,,,,,,,de,de,de,m,31,,2021-08-12_17h09.50.173,online_experiment,2021.1.4,MacIntel,60.0024001,FALSE,,"Mozilla/5.0 (Macintosh; Intel Mac OS X 10_15_7) AppleWebKit/537.36 (KHTML, like Gecko) Chrome/92.0.4515.131 Safari/537.36",1440,676,1440,900,,,,,,,,9,1.8562,0.437673611,-0.438268229,1,0,0,next_trial_button,0,62,62,27,1,beach,visiblesun,yesclouds,3,"752.8089887640449,500",
,,,,,,,de,de,de,m,31,,2021-08-12_17h09.50.173,online_experiment,2021.1.4,MacIntel,60.0024001,FALSE,,"Mozilla/5.0 (Macintosh; Intel Mac OS X 10_15_7) AppleWebKit/537.36 (KHTML, like Gecko) Chrome/92.0.4515.131 Safari/537.36",1440,676,1440,900,,,,,,,,8,1.5166,0.378072917,-0.417131076,1,0,0,next_trial_button,0,63,63,66,1,beach,visiblesun,noclouds,8,"1028.5714285714284,500",
,,,,,,,de,de,de,m,31,,2021-08-12_17h09.50.173,online_experiment,2021.1.4,MacIntel,60.0024001,FALSE,,"Mozilla/5.0 (Macintosh; Intel Mac OS X 10_15_7) AppleWebKit/537.36 (KHTML, like Gecko) Chrome/92.0.4515.131 Safari/537.36",1440,676,1440,900,,,,,,,,7,1.9784,0.465820313,-0.421662326,1,0,0,next_trial_button,0,64,64,49,1,beach,invisiblesun,yesclouds,6,"858.4474885844749,500",
,,,,,,,de,de,de,m,31,,2021-08-12_17h09.50.173,online_experiment,2021.1.4,MacIntel,60.0024001,FALSE,,"Mozilla/5.0 (Macintosh; Intel Mac OS X 10_15_7) AppleWebKit/537.36 (KHTML, like Gecko) Chrome/92.0.4515.131 Safari/537.36",1440,676,1440,900,,,,,,,,2,2.3968,0.362795139,-0.427586806,1,0,0,next_trial_button,0,65,65,68,1,landscape,invisiblesun,noclouds,8,"666.6666666666666,500",
,,,,,,,de,de,de,m,31,,2021-08-12_17h09.50.173,online_experiment,2021.1.4,MacIntel,60.0024001,FALSE,,"Mozilla/5.0 (Macintosh; Intel Mac OS X 10_15_7) AppleWebKit/537.36 (KHTML, like Gecko) Chrome/92.0.4515.131 Safari/537.36",1440,676,1440,900,,,,,,,,3,1.6279,0.404357639,-0.449930556,1,0,0,next_trial_button,0,66,66,73,1,beach,invisiblesun,yesclouds,9,"1028.5714285714284,500",
,,,,,,,de,de,de,m,31,,2021-08-12_17h09.50.173,online_experiment,2021.1.4,MacIntel,60.0024001,FALSE,,"Mozilla/5.0 (Macintosh; Intel Mac OS X 10_15_7) AppleWebKit/537.36 (KHTML, like Gecko) Chrome/92.0.4515.131 Safari/537.36",1440,676,1440,900,,,,,,,,8,1.8171,0.442630208,-0.428619792,1,0,0,next_trial_button,0,67,67,30,1,landscape,visiblesun,noclouds,3,"346.3035019455253,500",
,,,,,,,de,de,de,m,31,,2021-08-12_17h09.50.173,online_experiment,2021.1.4,MacIntel,60.0024001,FALSE,,"Mozilla/5.0 (Macintosh; Intel Mac OS X 10_15_7) AppleWebKit/537.36 (KHTML, like Gecko) Chrome/92.0.4515.131 Safari/537.36",1440,676,1440,900,,,,,,,,8,1.8655,0.30875434,-0.418233507,1,0,0,next_trial_button,0,68,68,69,1,landscape,invisiblesun,yesclouds,8,"750,500",
,,,,,,,de,de,de,m,31,,2021-08-12_17h09.50.173,online_experiment,2021.1.4,MacIntel,60.0024001,FALSE,,"Mozilla/5.0 (Macintosh; Intel Mac OS X 10_15_7) AppleWebKit/537.36 (KHTML, like Gecko) Chrome/92.0.4515.131 Safari/537.36",1440,676,1440,900,,,,,,,,4,2.3382,0.417868924,-0.396657986,1,0,0,next_trial_button,0,69,69,25,1,beach,invisiblesun,yesclouds,3,"750.4690431519699,500",
,,,,,,,de,de,de,m,31,,2021-08-12_17h09.50.173,online_experiment,2021.1.4,MacIntel,60.0024001,FALSE,,"Mozilla/5.0 (Macintosh; Intel Mac OS X 10_15_7) AppleWebKit/537.36 (KHTML, like Gecko) Chrome/92.0.4515.131 Safari/537.36",1440,676,1440,900,,,,,,,,7,2.7548,0.351236979,-0.437161458,1,0,0,next_trial_button,0,70,70,47,1,landscape,visiblesun,yesclouds,5,"666.6666666666666,500",
,,,,,,,de,de,de,m,31,,2021-08-12_17h09.50.173,online_experiment,2021.1.4,MacIntel,60.0024001,FALSE,,"Mozilla/5.0 (Macintosh; Intel Mac OS X 10_15_7) AppleWebKit/537.36 (KHTML, like Gecko) Chrome/92.0.4515.131 Safari/537.36",1440,676,1440,900,,,,,,,,10,2.1059,0.498723958,-0.415824653,1,0,0,next_trial_button,0,71,71,61,1,landscape,invisiblesun,yesclouds,7,"500,500",
,,,,,,,de,de,de,m,31,,2021-08-12_17h09.50.173,online_experiment,2021.1.4,MacIntel,60.0024001,FALSE,,"Mozilla/5.0 (Macintosh; Intel Mac OS X 10_15_7) AppleWebKit/537.36 (KHTML, like Gecko) Chrome/92.0.4515.131 Safari/537.36",1440,676,1440,900,,,,,,,,8,1.4812,0.426493056,-0.424500868,1,0,0,next_trial_button,0,72,72,11,1,beach,visiblesun,yesclouds,1,"989.8132427843803,500",
,,,,,,,de,de,de,m,31,,2021-08-12_17h09.50.173,online_experiment,2021.1.4,MacIntel,60.0024001,FALSE,,"Mozilla/5.0 (Macintosh; Intel Mac OS X 10_15_7) AppleWebKit/537.36 (KHTML, like Gecko) Chrome/92.0.4515.131 Safari/537.36",1440,676,1440,900,,,,,,,,8,2.0893,0.348993056,-0.414401042,1,0,0,next_trial_button,0,73,73,63,1,landscape,visiblesun,yesclouds,7,"331.94444444444446,500",
,,,,,,,de,de,de,m,31,,2021-08-12_17h09.50.173,online_experiment,2021.1.4,MacIntel,60.0024001,FALSE,,"Mozilla/5.0 (Macintosh; Intel Mac OS X 10_15_7) AppleWebKit/537.36 (KHTML, like Gecko) Chrome/92.0.4515.131 Safari/537.36",1440,676,1440,900,,,,,,,,9,1.714,0.33891059,-0.417217882,1,0,0,next_trial_button,0,74,74,4,1,landscape,invisiblesun,noclouds,0,"1276.9171185127807,500",
,,,,,,,de,de,de,m,31,,2021-08-12_17h09.50.173,online_experiment,2021.1.4,MacIntel,60.0024001,FALSE,,"Mozilla/5.0 (Macintosh; Intel Mac OS X 10_15_7) AppleWebKit/537.36 (KHTML, like Gecko) Chrome/92.0.4515.131 Safari/537.36",1440,676,1440,900,,,,,,,,5,1.6651,0.320034722,-0.423936632,1,0,0,next_trial_button,0,75,75,62,1,landscape,visiblesun,noclouds,7,"417.42389822807814,500",
,,,,,,,de,de,de,m,31,,2021-08-12_17h09.50.173,online_experiment,2021.1.4,MacIntel,60.0024001,FALSE,,"Mozilla/5.0 (Macintosh; Intel Mac OS X 10_15_7) AppleWebKit/537.36 (KHTML, like Gecko) Chrome/92.0.4515.131 Safari/537.36",1440,676,1440,900,,,,,,,,8,1.5735,0.391310764,-0.417230903,1,0,0,next_trial_button,0,76,76,41,1,beach,invisiblesun,yesclouds,5,"1248.4394506866417,500",
,,,,,,,de,de,de,m,31,,2021-08-12_17h09.50.173,online_experiment,2021.1.4,MacIntel,60.0024001,FALSE,,"Mozilla/5.0 (Macintosh; Intel Mac OS X 10_15_7) AppleWebKit/537.36 (KHTML, like Gecko) Chrome/92.0.4515.131 Safari/537.36",1440,676,1440,900,,,,,,,,9,1.6393,0.326432292,-0.422526042,1,0,0,next_trial_button,0,77,77,22,1,landscape,visiblesun,noclouds,2,"749.3333333333333,500",
,,,,,,,de,de,de,m,31,,2021-08-12_17h09.50.173,online_experiment,2021.1.4,MacIntel,60.0024001,FALSE,,"Mozilla/5.0 (Macintosh; Intel Mac OS X 10_15_7) AppleWebKit/537.36 (KHTML, like Gecko) Chrome/92.0.4515.131 Safari/537.36",1440,676,1440,900,,,,,,,,7,1.7567,0.369461806,-0.435598958,1,0,0,next_trial_button,0,78,78,19,1,beach,visiblesun,yesclouds,2,"770.1393095093882,500",
,,,,,,,de,de,de,m,31,,2021-08-12_17h09.50.173,online_experiment,2021.1.4,MacIntel,60.0024001,FALSE,,"Mozilla/5.0 (Macintosh; Intel Mac OS X 10_15_7) AppleWebKit/537.36 (KHTML, like Gecko) Chrome/92.0.4515.131 Safari/537.36",1440,676,1440,900,,,,,,,,8,1.6806,0.400073785,-0.412304687,1,0,0,next_trial_button,0,79,79,7,1,landscape,visiblesun,yesclouds,0,"743.421052631579,500",
,,,,,,,de,de,de,m,31,,2021-08-12_17h09.50.173,online_experiment,2021.1.4,MacIntel,60.0024001,FALSE,,"Mozilla/5.0 (Macintosh; Intel Mac OS X 10_15_7) AppleWebKit/537.36 (KHTML, like Gecko) Chrome/92.0.4515.131 Safari/537.36",1440,676,1440,900,,,,,,,,,,,,,,,,,,,,,,,,,"743.421052631579,500",211.8231
