language_mouse.x,language_mouse.y,language_mouse.leftButton,language_mouse.midButton,language_mouse.rightButton,language_mouse.time,language_mouse.clicked_name,nationality,mother_tongue,homeland,gender,age,email,date,expName,psychopyVersion,OS,frameRate,cancel_experiment,cancel_reasons,client_agent_information,windowWidth,windowHeight,xRes,yRes,start_exp_mouse.x,start_exp_mouse.y,start_exp_mouse.leftButton,start_exp_mouse.midButton,start_exp_mouse.rightButton,start_exp_mouse.time,start_exp_mouse.clicked_name,rating_slider.response,rating_slider.rt,next_trial_mouse.x,next_trial_mouse.y,next_trial_mouse.leftButton,next_trial_mouse.midButton,next_trial_mouse.rightButton,next_trial_mouse.clicked_name,trials.thisRepN,trials.thisTrialN,trials.thisN,trials.thisIndex,trials.ran,environment,sunVisibility,cloudVisibility,imageId,imgSize,globalClockTime
-0.273333333,-0.296190476,1,0,0,1.221,de_flag,de,de,de,f,43,,2021-08-05_16h46.35.573,online_experiment,2021.1.4,MacIntel,58.82352941,FALSE,,"Mozilla/5.0 (Macintosh; Intel Mac OS X 10_15_7) AppleWebKit/605.1.15 (KHTML, like Gecko) Version/14.1.1 Safari/605.1.15",1674,860,1680,1050,,,,,,,,,,,,,,,,,,,,,,,,,,
,,,,,,,de,de,de,f,43,,2021-08-05_16h46.35.573,online_experiment,2021.1.4,MacIntel,58.82352941,FALSE,,"Mozilla/5.0 (Macintosh; Intel Mac OS X 10_15_7) AppleWebKit/605.1.15 (KHTML, like Gecko) Version/14.1.1 Safari/605.1.15",1674,860,1680,1050,0.07047619,-0.399047619,1,0,0,10.249,cont_gr,6,6.091,0.343809524,-0.420952381,1,0,0,next_trial_button,0,0,0,53,1,landscape,invisiblesun,yesclouds,6,"750.0695023630803,500",
,,,,,,,de,de,de,f,43,,2021-08-05_16h46.35.573,online_experiment,2021.1.4,MacIntel,58.82352941,FALSE,,"Mozilla/5.0 (Macintosh; Intel Mac OS X 10_15_7) AppleWebKit/605.1.15 (KHTML, like Gecko) Version/14.1.1 Safari/605.1.15",1674,860,1680,1050,,,,,,,,6,3.431,0.365714286,-0.418095238,1,0,0,next_trial_button,0,1,1,59,1,beach,visiblesun,yesclouds,7,"888.9689978370584,500",
,,,,,,,de,de,de,f,43,,2021-08-05_16h46.35.573,online_experiment,2021.1.4,MacIntel,58.82352941,FALSE,,"Mozilla/5.0 (Macintosh; Intel Mac OS X 10_15_7) AppleWebKit/605.1.15 (KHTML, like Gecko) Version/14.1.1 Safari/605.1.15",1674,860,1680,1050,,,,,,,,5,2.658,0.364761905,-0.398095238,1,0,0,next_trial_button,0,2,2,40,1,beach,invisiblesun,noclouds,5,"1028.5714285714284,500",
,,,,,,,de,de,de,f,43,,2021-08-05_16h46.35.573,online_experiment,2021.1.4,MacIntel,58.82352941,FALSE,,"Mozilla/5.0 (Macintosh; Intel Mac OS X 10_15_7) AppleWebKit/605.1.15 (KHTML, like Gecko) Version/14.1.1 Safari/605.1.15",1674,860,1680,1050,,,,,,,,4,2.266,0.398095238,-0.40952381,1,0,0,next_trial_button,0,3,3,46,1,landscape,visiblesun,noclouds,5,"750,500",
,,,,,,,de,de,de,f,43,,2021-08-05_16h46.35.573,online_experiment,2021.1.4,MacIntel,58.82352941,FALSE,,"Mozilla/5.0 (Macintosh; Intel Mac OS X 10_15_7) AppleWebKit/605.1.15 (KHTML, like Gecko) Version/14.1.1 Safari/605.1.15",1674,860,1680,1050,,,,,,,,8,2.275,0.318095238,-0.424761905,1,0,0,next_trial_button,0,4,4,14,1,landscape,visiblesun,noclouds,1,"745.9919839679359,500",
,,,,,,,de,de,de,f,43,,2021-08-05_16h46.35.573,online_experiment,2021.1.4,MacIntel,58.82352941,FALSE,,"Mozilla/5.0 (Macintosh; Intel Mac OS X 10_15_7) AppleWebKit/605.1.15 (KHTML, like Gecko) Version/14.1.1 Safari/605.1.15",1674,860,1680,1050,,,,,,,,5,3.91,0.36,-0.418095238,1,0,0,next_trial_button,0,5,5,62,1,landscape,visiblesun,noclouds,7,"417.42389822807814,500",
,,,,,,,de,de,de,f,43,,2021-08-05_16h46.35.573,online_experiment,2021.1.4,MacIntel,58.82352941,FALSE,,"Mozilla/5.0 (Macintosh; Intel Mac OS X 10_15_7) AppleWebKit/605.1.15 (KHTML, like Gecko) Version/14.1.1 Safari/605.1.15",1674,860,1680,1050,,,,,,,,6,4.014,0.343809524,-0.395238095,1,0,0,next_trial_button,0,6,6,21,1,landscape,invisiblesun,yesclouds,2,"750,500",
,,,,,,,de,de,de,f,43,,2021-08-05_16h46.35.573,online_experiment,2021.1.4,MacIntel,58.82352941,FALSE,,"Mozilla/5.0 (Macintosh; Intel Mac OS X 10_15_7) AppleWebKit/605.1.15 (KHTML, like Gecko) Version/14.1.1 Safari/605.1.15",1674,860,1680,1050,,,,,,,,9,2.964,0.388571429,-0.407619048,1,0,0,next_trial_button,0,7,7,45,1,landscape,invisiblesun,yesclouds,5,"749.6251874062968,500",
,,,,,,,de,de,de,f,43,,2021-08-05_16h46.35.573,online_experiment,2021.1.4,MacIntel,58.82352941,FALSE,,"Mozilla/5.0 (Macintosh; Intel Mac OS X 10_15_7) AppleWebKit/605.1.15 (KHTML, like Gecko) Version/14.1.1 Safari/605.1.15",1674,860,1680,1050,,,,,,,,6,2.415,0.33047619,-0.413333333,1,0,0,next_trial_button,0,8,8,2,1,beach,visiblesun,noclouds,0,"375,500",
,,,,,,,de,de,de,f,43,,2021-08-05_16h46.35.573,online_experiment,2021.1.4,MacIntel,58.82352941,FALSE,,"Mozilla/5.0 (Macintosh; Intel Mac OS X 10_15_7) AppleWebKit/605.1.15 (KHTML, like Gecko) Version/14.1.1 Safari/605.1.15",1674,860,1680,1050,,,,,,,,8,1.994,0.324761905,-0.420952381,1,0,0,next_trial_button,0,9,9,50,1,beach,visiblesun,noclouds,6,"666.6666666666666,500",
,,,,,,,de,de,de,f,43,,2021-08-05_16h46.35.573,online_experiment,2021.1.4,MacIntel,58.82352941,FALSE,,"Mozilla/5.0 (Macintosh; Intel Mac OS X 10_15_7) AppleWebKit/605.1.15 (KHTML, like Gecko) Version/14.1.1 Safari/605.1.15",1674,860,1680,1050,,,,,,,,9,4.594,0.365714286,-0.44,1,0,0,next_trial_button,0,10,10,43,1,beach,visiblesun,yesclouds,5,"750,500",
,,,,,,,de,de,de,f,43,,2021-08-05_16h46.35.573,online_experiment,2021.1.4,MacIntel,58.82352941,FALSE,,"Mozilla/5.0 (Macintosh; Intel Mac OS X 10_15_7) AppleWebKit/605.1.15 (KHTML, like Gecko) Version/14.1.1 Safari/605.1.15",1674,860,1680,1050,,,,,,,,5,4.641,0.342857143,-0.437142857,1,0,0,next_trial_button,0,11,11,49,1,beach,invisiblesun,yesclouds,6,"858.4474885844749,500",
,,,,,,,de,de,de,f,43,,2021-08-05_16h46.35.573,online_experiment,2021.1.4,MacIntel,58.82352941,FALSE,,"Mozilla/5.0 (Macintosh; Intel Mac OS X 10_15_7) AppleWebKit/605.1.15 (KHTML, like Gecko) Version/14.1.1 Safari/605.1.15",1674,860,1680,1050,,,,,,,,1,2.692,0.40952381,-0.403809524,1,0,0,next_trial_button,0,12,12,76,1,landscape,invisiblesun,noclouds,9,"1056.6037735849056,500",
,,,,,,,de,de,de,f,43,,2021-08-05_16h46.35.573,online_experiment,2021.1.4,MacIntel,58.82352941,FALSE,,"Mozilla/5.0 (Macintosh; Intel Mac OS X 10_15_7) AppleWebKit/605.1.15 (KHTML, like Gecko) Version/14.1.1 Safari/605.1.15",1674,860,1680,1050,,,,,,,,10,2.126,0.365714286,-0.406666667,1,0,0,next_trial_button,0,13,13,4,1,landscape,invisiblesun,noclouds,0,"1276.9171185127807,500",
,,,,,,,de,de,de,f,43,,2021-08-05_16h46.35.573,online_experiment,2021.1.4,MacIntel,58.82352941,FALSE,,"Mozilla/5.0 (Macintosh; Intel Mac OS X 10_15_7) AppleWebKit/605.1.15 (KHTML, like Gecko) Version/14.1.1 Safari/605.1.15",1674,860,1680,1050,,,,,,,,7,2.102,0.357142857,-0.434285714,1,0,0,next_trial_button,0,14,14,31,1,landscape,visiblesun,yesclouds,3,"638.0622837370242,500",
,,,,,,,de,de,de,f,43,,2021-08-05_16h46.35.573,online_experiment,2021.1.4,MacIntel,58.82352941,FALSE,,"Mozilla/5.0 (Macintosh; Intel Mac OS X 10_15_7) AppleWebKit/605.1.15 (KHTML, like Gecko) Version/14.1.1 Safari/605.1.15",1674,860,1680,1050,,,,,,,,10,2.128,0.368571429,-0.424761905,1,0,0,next_trial_button,0,15,15,35,1,beach,visiblesun,yesclouds,4,"750,500",
,,,,,,,de,de,de,f,43,,2021-08-05_16h46.35.573,online_experiment,2021.1.4,MacIntel,58.82352941,FALSE,,"Mozilla/5.0 (Macintosh; Intel Mac OS X 10_15_7) AppleWebKit/605.1.15 (KHTML, like Gecko) Version/14.1.1 Safari/605.1.15",1674,860,1680,1050,,,,,,,,8,2.164,0.311428571,-0.425714286,1,0,0,next_trial_button,0,16,16,17,1,beach,invisiblesun,yesclouds,2,"684.8635235732011,500",
,,,,,,,de,de,de,f,43,,2021-08-05_16h46.35.573,online_experiment,2021.1.4,MacIntel,58.82352941,FALSE,,"Mozilla/5.0 (Macintosh; Intel Mac OS X 10_15_7) AppleWebKit/605.1.15 (KHTML, like Gecko) Version/14.1.1 Safari/605.1.15",1674,860,1680,1050,,,,,,,,5,2.445,0.338095238,-0.431428571,1,0,0,next_trial_button,0,17,17,71,1,landscape,visiblesun,yesclouds,8,"666.6666666666666,500",
,,,,,,,de,de,de,f,43,,2021-08-05_16h46.35.573,online_experiment,2021.1.4,MacIntel,58.82352941,FALSE,,"Mozilla/5.0 (Macintosh; Intel Mac OS X 10_15_7) AppleWebKit/605.1.15 (KHTML, like Gecko) Version/14.1.1 Safari/605.1.15",1674,860,1680,1050,,,,,,,,4,3.322,0.352380952,-0.437142857,1,0,0,next_trial_button,0,18,18,0,1,beach,invisiblesun,noclouds,0,"750,500",
,,,,,,,de,de,de,f,43,,2021-08-05_16h46.35.573,online_experiment,2021.1.4,MacIntel,58.82352941,FALSE,,"Mozilla/5.0 (Macintosh; Intel Mac OS X 10_15_7) AppleWebKit/605.1.15 (KHTML, like Gecko) Version/14.1.1 Safari/605.1.15",1674,860,1680,1050,,,,,,,,10,2.159,0.346666667,-0.419047619,1,0,0,next_trial_button,0,19,19,63,1,landscape,visiblesun,yesclouds,7,"331.94444444444446,500",
,,,,,,,de,de,de,f,43,,2021-08-05_16h46.35.573,online_experiment,2021.1.4,MacIntel,58.82352941,FALSE,,"Mozilla/5.0 (Macintosh; Intel Mac OS X 10_15_7) AppleWebKit/605.1.15 (KHTML, like Gecko) Version/14.1.1 Safari/605.1.15",1674,860,1680,1050,,,,,,,,1,2.953,0.454285714,-0.423809524,1,0,0,next_trial_button,0,20,20,28,1,landscape,invisiblesun,noclouds,3,"888.8888888888888,500",
,,,,,,,de,de,de,f,43,,2021-08-05_16h46.35.573,online_experiment,2021.1.4,MacIntel,58.82352941,FALSE,,"Mozilla/5.0 (Macintosh; Intel Mac OS X 10_15_7) AppleWebKit/605.1.15 (KHTML, like Gecko) Version/14.1.1 Safari/605.1.15",1674,860,1680,1050,,,,,,,,10,2.195,0.379047619,-0.420952381,1,0,0,next_trial_button,0,21,21,29,1,landscape,invisiblesun,yesclouds,3,"749.8660953401178,500",
,,,,,,,de,de,de,f,43,,2021-08-05_16h46.35.573,online_experiment,2021.1.4,MacIntel,58.82352941,FALSE,,"Mozilla/5.0 (Macintosh; Intel Mac OS X 10_15_7) AppleWebKit/605.1.15 (KHTML, like Gecko) Version/14.1.1 Safari/605.1.15",1674,860,1680,1050,,,,,,,,8,3.916,0.35047619,-0.414285714,1,0,0,next_trial_button,0,22,22,66,1,beach,visiblesun,noclouds,8,"1028.5714285714284,500",
,,,,,,,de,de,de,f,43,,2021-08-05_16h46.35.573,online_experiment,2021.1.4,MacIntel,58.82352941,FALSE,,"Mozilla/5.0 (Macintosh; Intel Mac OS X 10_15_7) AppleWebKit/605.1.15 (KHTML, like Gecko) Version/14.1.1 Safari/605.1.15",1674,860,1680,1050,,,,,,,,7,3.454,0.345714286,-0.40952381,1,0,0,next_trial_button,0,23,23,9,1,beach,invisiblesun,yesclouds,1,"750,500",
,,,,,,,de,de,de,f,43,,2021-08-05_16h46.35.573,online_experiment,2021.1.4,MacIntel,58.82352941,FALSE,,"Mozilla/5.0 (Macintosh; Intel Mac OS X 10_15_7) AppleWebKit/605.1.15 (KHTML, like Gecko) Version/14.1.1 Safari/605.1.15",1674,860,1680,1050,,,,,,,,9,4.332,0.360952381,-0.419047619,1,0,0,next_trial_button,0,24,24,20,1,landscape,invisiblesun,noclouds,2,"755.192878338279,500",
,,,,,,,de,de,de,f,43,,2021-08-05_16h46.35.573,online_experiment,2021.1.4,MacIntel,58.82352941,FALSE,,"Mozilla/5.0 (Macintosh; Intel Mac OS X 10_15_7) AppleWebKit/605.1.15 (KHTML, like Gecko) Version/14.1.1 Safari/605.1.15",1674,860,1680,1050,,,,,,,,7,4.787,0.384761905,-0.416190476,1,0,0,next_trial_button,0,25,25,55,1,landscape,visiblesun,yesclouds,6,"749.8819083608881,500",
,,,,,,,de,de,de,f,43,,2021-08-05_16h46.35.573,online_experiment,2021.1.4,MacIntel,58.82352941,FALSE,,"Mozilla/5.0 (Macintosh; Intel Mac OS X 10_15_7) AppleWebKit/605.1.15 (KHTML, like Gecko) Version/14.1.1 Safari/605.1.15",1674,860,1680,1050,,,,,,,,3,3.458,0.34952381,-0.421904762,1,0,0,next_trial_button,0,26,26,32,1,beach,invisiblesun,noclouds,4,"750,500",
,,,,,,,de,de,de,f,43,,2021-08-05_16h46.35.573,online_experiment,2021.1.4,MacIntel,58.82352941,FALSE,,"Mozilla/5.0 (Macintosh; Intel Mac OS X 10_15_7) AppleWebKit/605.1.15 (KHTML, like Gecko) Version/14.1.1 Safari/605.1.15",1674,860,1680,1050,,,,,,,,10,2.174,0.339047619,-0.425714286,1,0,0,next_trial_button,0,27,27,33,1,beach,invisiblesun,yesclouds,4,"751.5473032714411,500",
,,,,,,,de,de,de,f,43,,2021-08-05_16h46.35.573,online_experiment,2021.1.4,MacIntel,58.82352941,FALSE,,"Mozilla/5.0 (Macintosh; Intel Mac OS X 10_15_7) AppleWebKit/605.1.15 (KHTML, like Gecko) Version/14.1.1 Safari/605.1.15",1674,860,1680,1050,,,,,,,,7,2.477,0.336190476,-0.445714286,1,0,0,next_trial_button,0,28,28,47,1,landscape,visiblesun,yesclouds,5,"666.6666666666666,500",
,,,,,,,de,de,de,f,43,,2021-08-05_16h46.35.573,online_experiment,2021.1.4,MacIntel,58.82352941,FALSE,,"Mozilla/5.0 (Macintosh; Intel Mac OS X 10_15_7) AppleWebKit/605.1.15 (KHTML, like Gecko) Version/14.1.1 Safari/605.1.15",1674,860,1680,1050,,,,,,,,4,3.965,0.322857143,-0.425714286,1,0,0,next_trial_button,0,29,29,15,1,landscape,visiblesun,yesclouds,1,"333.3333333333333,500",
,,,,,,,de,de,de,f,43,,2021-08-05_16h46.35.573,online_experiment,2021.1.4,MacIntel,58.82352941,FALSE,,"Mozilla/5.0 (Macintosh; Intel Mac OS X 10_15_7) AppleWebKit/605.1.15 (KHTML, like Gecko) Version/14.1.1 Safari/605.1.15",1674,860,1680,1050,,,,,,,,4,3.877,0.328571429,-0.407619048,1,0,0,next_trial_button,0,30,30,23,1,landscape,visiblesun,yesclouds,2,"767.97829036635,500",
,,,,,,,de,de,de,f,43,,2021-08-05_16h46.35.573,online_experiment,2021.1.4,MacIntel,58.82352941,FALSE,,"Mozilla/5.0 (Macintosh; Intel Mac OS X 10_15_7) AppleWebKit/605.1.15 (KHTML, like Gecko) Version/14.1.1 Safari/605.1.15",1674,860,1680,1050,,,,,,,,6,3.744,0.34,-0.404761905,1,0,0,next_trial_button,0,31,31,34,1,beach,visiblesun,noclouds,4,"749.6251874062968,500",
,,,,,,,de,de,de,f,43,,2021-08-05_16h46.35.573,online_experiment,2021.1.4,MacIntel,58.82352941,FALSE,,"Mozilla/5.0 (Macintosh; Intel Mac OS X 10_15_7) AppleWebKit/605.1.15 (KHTML, like Gecko) Version/14.1.1 Safari/605.1.15",1674,860,1680,1050,,,,,,,,1,2.079,0.342857143,-0.416190476,1,0,0,next_trial_button,0,32,32,68,1,landscape,invisiblesun,noclouds,8,"666.6666666666666,500",
,,,,,,,de,de,de,f,43,,2021-08-05_16h46.35.573,online_experiment,2021.1.4,MacIntel,58.82352941,FALSE,,"Mozilla/5.0 (Macintosh; Intel Mac OS X 10_15_7) AppleWebKit/605.1.15 (KHTML, like Gecko) Version/14.1.1 Safari/605.1.15",1674,860,1680,1050,,,,,,,,2,4.315,0.412380952,-0.437142857,1,0,0,next_trial_button,0,33,33,24,1,beach,invisiblesun,noclouds,3,"750.089190153407,500",
,,,,,,,de,de,de,f,43,,2021-08-05_16h46.35.573,online_experiment,2021.1.4,MacIntel,58.82352941,FALSE,,"Mozilla/5.0 (Macintosh; Intel Mac OS X 10_15_7) AppleWebKit/605.1.15 (KHTML, like Gecko) Version/14.1.1 Safari/605.1.15",1674,860,1680,1050,,,,,,,,5,2.305,0.400952381,-0.43047619,1,0,0,next_trial_button,0,34,34,10,1,beach,visiblesun,noclouds,1,"747.0261697065821,500",
,,,,,,,de,de,de,f,43,,2021-08-05_16h46.35.573,online_experiment,2021.1.4,MacIntel,58.82352941,FALSE,,"Mozilla/5.0 (Macintosh; Intel Mac OS X 10_15_7) AppleWebKit/605.1.15 (KHTML, like Gecko) Version/14.1.1 Safari/605.1.15",1674,860,1680,1050,,,,,,,,7,3.63,0.312380952,-0.431428571,1,0,0,next_trial_button,0,35,35,70,1,landscape,visiblesun,noclouds,8,"666.6666666666666,500",
,,,,,,,de,de,de,f,43,,2021-08-05_16h46.35.573,online_experiment,2021.1.4,MacIntel,58.82352941,FALSE,,"Mozilla/5.0 (Macintosh; Intel Mac OS X 10_15_7) AppleWebKit/605.1.15 (KHTML, like Gecko) Version/14.1.1 Safari/605.1.15",1674,860,1680,1050,,,,,,,,1,2.335,0.358095238,-0.4,1,0,0,next_trial_button,0,36,36,5,1,landscape,invisiblesun,yesclouds,0,"750.4690431519699,500",
,,,,,,,de,de,de,f,43,,2021-08-05_16h46.35.573,online_experiment,2021.1.4,MacIntel,58.82352941,FALSE,,"Mozilla/5.0 (Macintosh; Intel Mac OS X 10_15_7) AppleWebKit/605.1.15 (KHTML, like Gecko) Version/14.1.1 Safari/605.1.15",1674,860,1680,1050,,,,,,,,5,3.48,0.340952381,-0.416190476,1,0,0,next_trial_button,0,37,37,1,1,beach,invisiblesun,yesclouds,0,"666.6666666666666,500",
,,,,,,,de,de,de,f,43,,2021-08-05_16h46.35.573,online_experiment,2021.1.4,MacIntel,58.82352941,FALSE,,"Mozilla/5.0 (Macintosh; Intel Mac OS X 10_15_7) AppleWebKit/605.1.15 (KHTML, like Gecko) Version/14.1.1 Safari/605.1.15",1674,860,1680,1050,,,,,,,,3,4.743,0.336190476,-0.408571429,1,0,0,next_trial_button,0,38,38,74,1,beach,visiblesun,noclouds,9,"1028.5714285714284,500",
,,,,,,,de,de,de,f,43,,2021-08-05_16h46.35.573,online_experiment,2021.1.4,MacIntel,58.82352941,FALSE,,"Mozilla/5.0 (Macintosh; Intel Mac OS X 10_15_7) AppleWebKit/605.1.15 (KHTML, like Gecko) Version/14.1.1 Safari/605.1.15",1674,860,1680,1050,,,,,,,,5,2.159,0.335238095,-0.417142857,1,0,0,next_trial_button,0,39,39,19,1,beach,visiblesun,yesclouds,2,"770.1393095093882,500",
,,,,,,,de,de,de,f,43,,2021-08-05_16h46.35.573,online_experiment,2021.1.4,MacIntel,58.82352941,FALSE,,"Mozilla/5.0 (Macintosh; Intel Mac OS X 10_15_7) AppleWebKit/605.1.15 (KHTML, like Gecko) Version/14.1.1 Safari/605.1.15",1674,860,1680,1050,,,,,,,,4,3.042,0.385714286,-0.417142857,1,0,0,next_trial_button,0,40,40,56,1,beach,invisiblesun,noclouds,7,"1028.5714285714284,500",
,,,,,,,de,de,de,f,43,,2021-08-05_16h46.35.573,online_experiment,2021.1.4,MacIntel,58.82352941,FALSE,,"Mozilla/5.0 (Macintosh; Intel Mac OS X 10_15_7) AppleWebKit/605.1.15 (KHTML, like Gecko) Version/14.1.1 Safari/605.1.15",1674,860,1680,1050,,,,,,,,2,4.76,0.336190476,-0.411428571,1,0,0,next_trial_button,0,41,41,77,1,landscape,invisiblesun,yesclouds,9,"888.8888888888888,500",
,,,,,,,de,de,de,f,43,,2021-08-05_16h46.35.573,online_experiment,2021.1.4,MacIntel,58.82352941,FALSE,,"Mozilla/5.0 (Macintosh; Intel Mac OS X 10_15_7) AppleWebKit/605.1.15 (KHTML, like Gecko) Version/14.1.1 Safari/605.1.15",1674,860,1680,1050,,,,,,,,8,2.299,0.361904762,-0.42,1,0,0,next_trial_button,0,42,42,58,1,beach,visiblesun,noclouds,7,"1028.5714285714284,500",
,,,,,,,de,de,de,f,43,,2021-08-05_16h46.35.573,online_experiment,2021.1.4,MacIntel,58.82352941,FALSE,,"Mozilla/5.0 (Macintosh; Intel Mac OS X 10_15_7) AppleWebKit/605.1.15 (KHTML, like Gecko) Version/14.1.1 Safari/605.1.15",1674,860,1680,1050,,,,,,,,5,3.052,0.339047619,-0.418095238,1,0,0,next_trial_button,0,43,43,61,1,landscape,invisiblesun,yesclouds,7,"500,500",
,,,,,,,de,de,de,f,43,,2021-08-05_16h46.35.573,online_experiment,2021.1.4,MacIntel,58.82352941,FALSE,,"Mozilla/5.0 (Macintosh; Intel Mac OS X 10_15_7) AppleWebKit/605.1.15 (KHTML, like Gecko) Version/14.1.1 Safari/605.1.15",1674,860,1680,1050,,,,,,,,3,5.661,0.375238095,-0.395238095,1,0,0,next_trial_button,0,44,44,67,1,beach,visiblesun,yesclouds,8,"748.1481481481482,500",
,,,,,,,de,de,de,f,43,,2021-08-05_16h46.35.573,online_experiment,2021.1.4,MacIntel,58.82352941,FALSE,,"Mozilla/5.0 (Macintosh; Intel Mac OS X 10_15_7) AppleWebKit/605.1.15 (KHTML, like Gecko) Version/14.1.1 Safari/605.1.15",1674,860,1680,1050,,,,,,,,7,5.998,0.326666667,-0.40952381,1,0,0,next_trial_button,0,45,45,44,1,landscape,invisiblesun,noclouds,5,"666.6666666666666,500",
,,,,,,,de,de,de,f,43,,2021-08-05_16h46.35.573,online_experiment,2021.1.4,MacIntel,58.82352941,FALSE,,"Mozilla/5.0 (Macintosh; Intel Mac OS X 10_15_7) AppleWebKit/605.1.15 (KHTML, like Gecko) Version/14.1.1 Safari/605.1.15",1674,860,1680,1050,,,,,,,,8,2.659,0.358095238,-0.417142857,1,0,0,next_trial_button,0,46,46,78,1,landscape,visiblesun,noclouds,9,"666.6666666666666,500",
,,,,,,,de,de,de,f,43,,2021-08-05_16h46.35.573,online_experiment,2021.1.4,MacIntel,58.82352941,FALSE,,"Mozilla/5.0 (Macintosh; Intel Mac OS X 10_15_7) AppleWebKit/605.1.15 (KHTML, like Gecko) Version/14.1.1 Safari/605.1.15",1674,860,1680,1050,,,,,,,,4,2.041,0.384761905,-0.424761905,1,0,0,next_trial_button,0,47,47,7,1,landscape,visiblesun,yesclouds,0,"743.421052631579,500",
,,,,,,,de,de,de,f,43,,2021-08-05_16h46.35.573,online_experiment,2021.1.4,MacIntel,58.82352941,FALSE,,"Mozilla/5.0 (Macintosh; Intel Mac OS X 10_15_7) AppleWebKit/605.1.15 (KHTML, like Gecko) Version/14.1.1 Safari/605.1.15",1674,860,1680,1050,,,,,,,,3,2.591,0.357142857,-0.42,1,0,0,next_trial_button,0,48,48,13,1,landscape,invisiblesun,yesclouds,1,"783.1192660550458,500",
,,,,,,,de,de,de,f,43,,2021-08-05_16h46.35.573,online_experiment,2021.1.4,MacIntel,58.82352941,FALSE,,"Mozilla/5.0 (Macintosh; Intel Mac OS X 10_15_7) AppleWebKit/605.1.15 (KHTML, like Gecko) Version/14.1.1 Safari/605.1.15",1674,860,1680,1050,,,,,,,,6,2.73,0.34,-0.418095238,1,0,0,next_trial_button,0,49,49,36,1,landscape,invisiblesun,noclouds,4,"281.25,500",
,,,,,,,de,de,de,f,43,,2021-08-05_16h46.35.573,online_experiment,2021.1.4,MacIntel,58.82352941,FALSE,,"Mozilla/5.0 (Macintosh; Intel Mac OS X 10_15_7) AppleWebKit/605.1.15 (KHTML, like Gecko) Version/14.1.1 Safari/605.1.15",1674,860,1680,1050,,,,,,,,5,6.156,0.374285714,-0.40952381,1,0,0,next_trial_button,0,50,50,6,1,landscape,visiblesun,noclouds,0,"1413.8005159071367,500",
,,,,,,,de,de,de,f,43,,2021-08-05_16h46.35.573,online_experiment,2021.1.4,MacIntel,58.82352941,FALSE,,"Mozilla/5.0 (Macintosh; Intel Mac OS X 10_15_7) AppleWebKit/605.1.15 (KHTML, like Gecko) Version/14.1.1 Safari/605.1.15",1674,860,1680,1050,,,,,,,,4,2.139,0.405714286,-0.446666667,1,0,0,next_trial_button,0,51,51,8,1,beach,invisiblesun,noclouds,1,"1215.1898734177216,500",
,,,,,,,de,de,de,f,43,,2021-08-05_16h46.35.573,online_experiment,2021.1.4,MacIntel,58.82352941,FALSE,,"Mozilla/5.0 (Macintosh; Intel Mac OS X 10_15_7) AppleWebKit/605.1.15 (KHTML, like Gecko) Version/14.1.1 Safari/605.1.15",1674,860,1680,1050,,,,,,,,7,2.412,0.378095238,-0.411428571,1,0,0,next_trial_button,0,52,52,51,1,beach,visiblesun,yesclouds,6,"657.1279916753382,500",
,,,,,,,de,de,de,f,43,,2021-08-05_16h46.35.573,online_experiment,2021.1.4,MacIntel,58.82352941,FALSE,,"Mozilla/5.0 (Macintosh; Intel Mac OS X 10_15_7) AppleWebKit/605.1.15 (KHTML, like Gecko) Version/14.1.1 Safari/605.1.15",1674,860,1680,1050,,,,,,,,3,2.862,0.4,-0.422857143,1,0,0,next_trial_button,0,53,53,39,1,landscape,visiblesun,yesclouds,4,"749.7656982193065,500",
,,,,,,,de,de,de,f,43,,2021-08-05_16h46.35.573,online_experiment,2021.1.4,MacIntel,58.82352941,FALSE,,"Mozilla/5.0 (Macintosh; Intel Mac OS X 10_15_7) AppleWebKit/605.1.15 (KHTML, like Gecko) Version/14.1.1 Safari/605.1.15",1674,860,1680,1050,,,,,,,,1,2.834,0.435238095,-0.406666667,1,0,0,next_trial_button,0,54,54,30,1,landscape,visiblesun,noclouds,3,"346.3035019455253,500",
,,,,,,,de,de,de,f,43,,2021-08-05_16h46.35.573,online_experiment,2021.1.4,MacIntel,58.82352941,FALSE,,"Mozilla/5.0 (Macintosh; Intel Mac OS X 10_15_7) AppleWebKit/605.1.15 (KHTML, like Gecko) Version/14.1.1 Safari/605.1.15",1674,860,1680,1050,,,,,,,,9,2.185,0.326666667,-0.45047619,1,0,0,next_trial_button,0,55,55,22,1,landscape,visiblesun,noclouds,2,"749.3333333333333,500",
,,,,,,,de,de,de,f,43,,2021-08-05_16h46.35.573,online_experiment,2021.1.4,MacIntel,58.82352941,FALSE,,"Mozilla/5.0 (Macintosh; Intel Mac OS X 10_15_7) AppleWebKit/605.1.15 (KHTML, like Gecko) Version/14.1.1 Safari/605.1.15",1674,860,1680,1050,,,,,,,,6,3.663,0.43047619,-0.408571429,1,0,0,next_trial_button,0,56,56,48,1,beach,invisiblesun,noclouds,6,"1028.5714285714284,500",
,,,,,,,de,de,de,f,43,,2021-08-05_16h46.35.573,online_experiment,2021.1.4,MacIntel,58.82352941,FALSE,,"Mozilla/5.0 (Macintosh; Intel Mac OS X 10_15_7) AppleWebKit/605.1.15 (KHTML, like Gecko) Version/14.1.1 Safari/605.1.15",1674,860,1680,1050,,,,,,,,6,3.333,0.352380952,-0.401904762,1,0,0,next_trial_button,0,57,57,69,1,landscape,invisiblesun,yesclouds,8,"750,500",
,,,,,,,de,de,de,f,43,,2021-08-05_16h46.35.573,online_experiment,2021.1.4,MacIntel,58.82352941,FALSE,,"Mozilla/5.0 (Macintosh; Intel Mac OS X 10_15_7) AppleWebKit/605.1.15 (KHTML, like Gecko) Version/14.1.1 Safari/605.1.15",1674,860,1680,1050,,,,,,,,8,2.31,0.376190476,-0.418095238,1,0,0,next_trial_button,0,58,58,26,1,beach,visiblesun,noclouds,3,"888.8888888888888,500",
,,,,,,,de,de,de,f,43,,2021-08-05_16h46.35.573,online_experiment,2021.1.4,MacIntel,58.82352941,FALSE,,"Mozilla/5.0 (Macintosh; Intel Mac OS X 10_15_7) AppleWebKit/605.1.15 (KHTML, like Gecko) Version/14.1.1 Safari/605.1.15",1674,860,1680,1050,,,,,,,,5,2.01,0.307619048,-0.414285714,1,0,0,next_trial_button,0,59,59,12,1,landscape,invisiblesun,noclouds,1,"666.6666666666666,500",
,,,,,,,de,de,de,f,43,,2021-08-05_16h46.35.573,online_experiment,2021.1.4,MacIntel,58.82352941,FALSE,,"Mozilla/5.0 (Macintosh; Intel Mac OS X 10_15_7) AppleWebKit/605.1.15 (KHTML, like Gecko) Version/14.1.1 Safari/605.1.15",1674,860,1680,1050,,,,,,,,6,3.843,0.401904762,-0.403809524,1,0,0,next_trial_button,0,60,60,72,1,beach,invisiblesun,noclouds,9,"888.8888888888888,500",
,,,,,,,de,de,de,f,43,,2021-08-05_16h46.35.573,online_experiment,2021.1.4,MacIntel,58.82352941,FALSE,,"Mozilla/5.0 (Macintosh; Intel Mac OS X 10_15_7) AppleWebKit/605.1.15 (KHTML, like Gecko) Version/14.1.1 Safari/605.1.15",1674,860,1680,1050,,,,,,,,8,2.028,0.400952381,-0.412380952,1,0,0,next_trial_button,0,61,61,25,1,beach,invisiblesun,yesclouds,3,"750.4690431519699,500",
,,,,,,,de,de,de,f,43,,2021-08-05_16h46.35.573,online_experiment,2021.1.4,MacIntel,58.82352941,FALSE,,"Mozilla/5.0 (Macintosh; Intel Mac OS X 10_15_7) AppleWebKit/605.1.15 (KHTML, like Gecko) Version/14.1.1 Safari/605.1.15",1674,860,1680,1050,,,,,,,,3,1.862,0.35047619,-0.417142857,1,0,0,next_trial_button,0,62,62,52,1,landscape,invisiblesun,noclouds,6,"666.6666666666666,500",
,,,,,,,de,de,de,f,43,,2021-08-05_16h46.35.573,online_experiment,2021.1.4,MacIntel,58.82352941,FALSE,,"Mozilla/5.0 (Macintosh; Intel Mac OS X 10_15_7) AppleWebKit/605.1.15 (KHTML, like Gecko) Version/14.1.1 Safari/605.1.15",1674,860,1680,1050,,,,,,,,9,2.357,0.326666667,-0.42,1,0,0,next_trial_button,0,63,63,27,1,beach,visiblesun,yesclouds,3,"752.8089887640449,500",
,,,,,,,de,de,de,f,43,,2021-08-05_16h46.35.573,online_experiment,2021.1.4,MacIntel,58.82352941,FALSE,,"Mozilla/5.0 (Macintosh; Intel Mac OS X 10_15_7) AppleWebKit/605.1.15 (KHTML, like Gecko) Version/14.1.1 Safari/605.1.15",1674,860,1680,1050,,,,,,,,8,2.127,0.340952381,-0.417142857,1,0,0,next_trial_button,0,64,64,11,1,beach,visiblesun,yesclouds,1,"989.8132427843803,500",
,,,,,,,de,de,de,f,43,,2021-08-05_16h46.35.573,online_experiment,2021.1.4,MacIntel,58.82352941,FALSE,,"Mozilla/5.0 (Macintosh; Intel Mac OS X 10_15_7) AppleWebKit/605.1.15 (KHTML, like Gecko) Version/14.1.1 Safari/605.1.15",1674,860,1680,1050,,,,,,,,9,3.512,0.397142857,-0.432380952,1,0,0,next_trial_button,0,65,65,37,1,landscape,invisiblesun,yesclouds,4,"669.4214876033058,500",
,,,,,,,de,de,de,f,43,,2021-08-05_16h46.35.573,online_experiment,2021.1.4,MacIntel,58.82352941,FALSE,,"Mozilla/5.0 (Macintosh; Intel Mac OS X 10_15_7) AppleWebKit/605.1.15 (KHTML, like Gecko) Version/14.1.1 Safari/605.1.15",1674,860,1680,1050,,,,,,,,2,2.347,0.439047619,-0.417142857,1,0,0,next_trial_button,0,66,66,60,1,landscape,invisiblesun,noclouds,7,"666.7268134247564,500",
,,,,,,,de,de,de,f,43,,2021-08-05_16h46.35.573,online_experiment,2021.1.4,MacIntel,58.82352941,FALSE,,"Mozilla/5.0 (Macintosh; Intel Mac OS X 10_15_7) AppleWebKit/605.1.15 (KHTML, like Gecko) Version/14.1.1 Safari/605.1.15",1674,860,1680,1050,,,,,,,,10,2.4,0.404761905,-0.425714286,1,0,0,next_trial_button,0,67,67,3,1,beach,visiblesun,yesclouds,0,"1152.5122276567363,500",
,,,,,,,de,de,de,f,43,,2021-08-05_16h46.35.573,online_experiment,2021.1.4,MacIntel,58.82352941,FALSE,,"Mozilla/5.0 (Macintosh; Intel Mac OS X 10_15_7) AppleWebKit/605.1.15 (KHTML, like Gecko) Version/14.1.1 Safari/605.1.15",1674,860,1680,1050,,,,,,,,10,2.014,0.342857143,-0.404761905,1,0,0,next_trial_button,0,68,68,54,1,landscape,visiblesun,noclouds,6,"695.0043821209465,500",
,,,,,,,de,de,de,f,43,,2021-08-05_16h46.35.573,online_experiment,2021.1.4,MacIntel,58.82352941,FALSE,,"Mozilla/5.0 (Macintosh; Intel Mac OS X 10_15_7) AppleWebKit/605.1.15 (KHTML, like Gecko) Version/14.1.1 Safari/605.1.15",1674,860,1680,1050,,,,,,,,10,1.895,0.363809524,-0.432380952,1,0,0,next_trial_button,0,69,69,73,1,beach,invisiblesun,yesclouds,9,"1028.5714285714284,500",
,,,,,,,de,de,de,f,43,,2021-08-05_16h46.35.573,online_experiment,2021.1.4,MacIntel,58.82352941,FALSE,,"Mozilla/5.0 (Macintosh; Intel Mac OS X 10_15_7) AppleWebKit/605.1.15 (KHTML, like Gecko) Version/14.1.1 Safari/605.1.15",1674,860,1680,1050,,,,,,,,7,4.731,0.351428571,-0.414285714,1,0,0,next_trial_button,0,70,70,57,1,beach,invisiblesun,yesclouds,7,"749.707488299532,500",
,,,,,,,de,de,de,f,43,,2021-08-05_16h46.35.573,online_experiment,2021.1.4,MacIntel,58.82352941,FALSE,,"Mozilla/5.0 (Macintosh; Intel Mac OS X 10_15_7) AppleWebKit/605.1.15 (KHTML, like Gecko) Version/14.1.1 Safari/605.1.15",1674,860,1680,1050,,,,,,,,5,1.969,0.380952381,-0.421904762,1,0,0,next_trial_button,0,71,71,79,1,landscape,visiblesun,yesclouds,9,"1028.5714285714284,500",
,,,,,,,de,de,de,f,43,,2021-08-05_16h46.35.573,online_experiment,2021.1.4,MacIntel,58.82352941,FALSE,,"Mozilla/5.0 (Macintosh; Intel Mac OS X 10_15_7) AppleWebKit/605.1.15 (KHTML, like Gecko) Version/14.1.1 Safari/605.1.15",1674,860,1680,1050,,,,,,,,7,2.548,0.373333333,-0.424761905,1,0,0,next_trial_button,0,72,72,16,1,beach,invisiblesun,noclouds,2,"752.8089887640449,500",
,,,,,,,de,de,de,f,43,,2021-08-05_16h46.35.573,online_experiment,2021.1.4,MacIntel,58.82352941,FALSE,,"Mozilla/5.0 (Macintosh; Intel Mac OS X 10_15_7) AppleWebKit/605.1.15 (KHTML, like Gecko) Version/14.1.1 Safari/605.1.15",1674,860,1680,1050,,,,,,,,9,2.215,0.34952381,-0.424761905,1,0,0,next_trial_button,0,73,73,41,1,beach,invisiblesun,yesclouds,5,"1248.4394506866417,500",
,,,,,,,de,de,de,f,43,,2021-08-05_16h46.35.573,online_experiment,2021.1.4,MacIntel,58.82352941,FALSE,,"Mozilla/5.0 (Macintosh; Intel Mac OS X 10_15_7) AppleWebKit/605.1.15 (KHTML, like Gecko) Version/14.1.1 Safari/605.1.15",1674,860,1680,1050,,,,,,,,8,1.812,0.346666667,-0.403809524,1,0,0,next_trial_button,0,74,74,65,1,beach,invisiblesun,yesclouds,8,"750,500",
,,,,,,,de,de,de,f,43,,2021-08-05_16h46.35.573,online_experiment,2021.1.4,MacIntel,58.82352941,FALSE,,"Mozilla/5.0 (Macintosh; Intel Mac OS X 10_15_7) AppleWebKit/605.1.15 (KHTML, like Gecko) Version/14.1.1 Safari/605.1.15",1674,860,1680,1050,,,,,,,,4,2.431,0.306666667,-0.397142857,1,0,0,next_trial_button,0,75,75,42,1,beach,visiblesun,noclouds,5,"834.4594594594595,500",
,,,,,,,de,de,de,f,43,,2021-08-05_16h46.35.573,online_experiment,2021.1.4,MacIntel,58.82352941,FALSE,,"Mozilla/5.0 (Macintosh; Intel Mac OS X 10_15_7) AppleWebKit/605.1.15 (KHTML, like Gecko) Version/14.1.1 Safari/605.1.15",1674,860,1680,1050,,,,,,,,6,3.479,0.341904762,-0.41047619,1,0,0,next_trial_button,0,76,76,75,1,beach,visiblesun,yesclouds,9,"1029.6010296010297,500",
,,,,,,,de,de,de,f,43,,2021-08-05_16h46.35.573,online_experiment,2021.1.4,MacIntel,58.82352941,FALSE,,"Mozilla/5.0 (Macintosh; Intel Mac OS X 10_15_7) AppleWebKit/605.1.15 (KHTML, like Gecko) Version/14.1.1 Safari/605.1.15",1674,860,1680,1050,,,,,,,,5,1.994,0.394285714,-0.408571429,1,0,0,next_trial_button,0,77,77,18,1,beach,visiblesun,noclouds,2,"666.6666666666666,500",
,,,,,,,de,de,de,f,43,,2021-08-05_16h46.35.573,online_experiment,2021.1.4,MacIntel,58.82352941,FALSE,,"Mozilla/5.0 (Macintosh; Intel Mac OS X 10_15_7) AppleWebKit/605.1.15 (KHTML, like Gecko) Version/14.1.1 Safari/605.1.15",1674,860,1680,1050,,,,,,,,9,1.727,0.355238095,-0.406666667,1,0,0,next_trial_button,0,78,78,38,1,landscape,visiblesun,noclouds,4,"733.3333333333333,500",
,,,,,,,de,de,de,f,43,,2021-08-05_16h46.35.573,online_experiment,2021.1.4,MacIntel,58.82352941,FALSE,,"Mozilla/5.0 (Macintosh; Intel Mac OS X 10_15_7) AppleWebKit/605.1.15 (KHTML, like Gecko) Version/14.1.1 Safari/605.1.15",1674,860,1680,1050,,,,,,,,8,2.529,0.351428571,-0.40952381,1,0,0,next_trial_button,0,79,79,64,1,beach,invisiblesun,noclouds,8,"1028.5714285714284,500",
,,,,,,,de,de,de,f,43,,2021-08-05_16h46.35.573,online_experiment,2021.1.4,MacIntel,58.82352941,FALSE,,"Mozilla/5.0 (Macintosh; Intel Mac OS X 10_15_7) AppleWebKit/605.1.15 (KHTML, like Gecko) Version/14.1.1 Safari/605.1.15",1674,860,1680,1050,,,,,,,,,,,,,,,,,,,,,,,,,"1028.5714285714284,500",340.572
