language_mouse.x,language_mouse.y,language_mouse.leftButton,language_mouse.midButton,language_mouse.rightButton,language_mouse.time,language_mouse.clicked_name,nationality,mother_tongue,homeland,gender,age,email,date,expName,psychopyVersion,OS,frameRate,cancel_experiment,cancel_reasons,client_agent_information,windowWidth,windowHeight,xRes,yRes,start_exp_mouse.x,start_exp_mouse.y,start_exp_mouse.leftButton,start_exp_mouse.midButton,start_exp_mouse.rightButton,start_exp_mouse.time,start_exp_mouse.clicked_name,rating_slider.response,rating_slider.rt,next_trial_mouse.x,next_trial_mouse.y,next_trial_mouse.leftButton,next_trial_mouse.midButton,next_trial_mouse.rightButton,next_trial_mouse.clicked_name,trials.thisRepN,trials.thisTrialN,trials.thisN,trials.thisIndex,trials.ran,environment,sunVisibility,cloudVisibility,imageId,imgSize,globalClockTime
-0.388888889,-0.181111111,1,0,0,1.075,de_flag,de,de,de,x,22,,2021-08-02_22h55.53.864,online_experiment,2021.1.4,MacIntel,58.82352941,FALSE,,"Mozilla/5.0 (Macintosh; Intel Mac OS X 10_14_6) AppleWebKit/605.1.15 (KHTML, like Gecko) Version/14.1.1 Safari/605.1.15",1292,740,1440,900,,,,,,,,,,,,,,,,,,,,,,,,,,
,,,,,,,de,de,de,x,22,,2021-08-02_22h55.53.864,online_experiment,2021.1.4,MacIntel,58.82352941,FALSE,,"Mozilla/5.0 (Macintosh; Intel Mac OS X 10_14_6) AppleWebKit/605.1.15 (KHTML, like Gecko) Version/14.1.1 Safari/605.1.15",1292,740,1440,900,-0.028888889,-0.456666667,1,0,0,4.466,start_button,2,4.056,0.366666667,-0.425555556,1,0,0,next_trial_button,0,0,0,39,1,landscape,visiblesun,yesclouds,4,"749.7656982193065,500",
,,,,,,,de,de,de,x,22,,2021-08-02_22h55.53.864,online_experiment,2021.1.4,MacIntel,58.82352941,FALSE,,"Mozilla/5.0 (Macintosh; Intel Mac OS X 10_14_6) AppleWebKit/605.1.15 (KHTML, like Gecko) Version/14.1.1 Safari/605.1.15",1292,740,1440,900,,,,,,,,9,2.294,0.412222222,-0.425555556,1,0,0,next_trial_button,0,1,1,46,1,landscape,visiblesun,noclouds,5,"750,500",
,,,,,,,de,de,de,x,22,,2021-08-02_22h55.53.864,online_experiment,2021.1.4,MacIntel,58.82352941,FALSE,,"Mozilla/5.0 (Macintosh; Intel Mac OS X 10_14_6) AppleWebKit/605.1.15 (KHTML, like Gecko) Version/14.1.1 Safari/605.1.15",1292,740,1440,900,,,,,,,,9,2.482,0.421111111,-0.395555556,1,0,0,next_trial_button,0,2,2,45,1,landscape,invisiblesun,yesclouds,5,"749.6251874062968,500",
,,,,,,,de,de,de,x,22,,2021-08-02_22h55.53.864,online_experiment,2021.1.4,MacIntel,58.82352941,FALSE,,"Mozilla/5.0 (Macintosh; Intel Mac OS X 10_14_6) AppleWebKit/605.1.15 (KHTML, like Gecko) Version/14.1.1 Safari/605.1.15",1292,740,1440,900,,,,,,,,3,4.299,0.353333333,-0.431111111,1,0,0,next_trial_button,0,3,3,74,1,beach,visiblesun,noclouds,9,"1028.5714285714284,500",
,,,,,,,de,de,de,x,22,,2021-08-02_22h55.53.864,online_experiment,2021.1.4,MacIntel,58.82352941,FALSE,,"Mozilla/5.0 (Macintosh; Intel Mac OS X 10_14_6) AppleWebKit/605.1.15 (KHTML, like Gecko) Version/14.1.1 Safari/605.1.15",1292,740,1440,900,,,,,,,,3,2.013,0.418888889,-0.455555556,1,0,0,next_trial_button,0,4,4,43,1,beach,visiblesun,yesclouds,5,"750,500",
,,,,,,,de,de,de,x,22,,2021-08-02_22h55.53.864,online_experiment,2021.1.4,MacIntel,58.82352941,FALSE,,"Mozilla/5.0 (Macintosh; Intel Mac OS X 10_14_6) AppleWebKit/605.1.15 (KHTML, like Gecko) Version/14.1.1 Safari/605.1.15",1292,740,1440,900,,,,,,,,2,2.258,0.404444444,-0.402222222,1,0,0,next_trial_button,0,5,5,78,1,landscape,visiblesun,noclouds,9,"666.6666666666666,500",
,,,,,,,de,de,de,x,22,,2021-08-02_22h55.53.864,online_experiment,2021.1.4,MacIntel,58.82352941,FALSE,,"Mozilla/5.0 (Macintosh; Intel Mac OS X 10_14_6) AppleWebKit/605.1.15 (KHTML, like Gecko) Version/14.1.1 Safari/605.1.15",1292,740,1440,900,,,,,,,,3,2.096,0.368888889,-0.43,1,0,0,next_trial_button,0,6,6,26,1,beach,visiblesun,noclouds,3,"888.8888888888888,500",
,,,,,,,de,de,de,x,22,,2021-08-02_22h55.53.864,online_experiment,2021.1.4,MacIntel,58.82352941,FALSE,,"Mozilla/5.0 (Macintosh; Intel Mac OS X 10_14_6) AppleWebKit/605.1.15 (KHTML, like Gecko) Version/14.1.1 Safari/605.1.15",1292,740,1440,900,,,,,,,,6,1.812,0.368888889,-0.425555556,1,0,0,next_trial_button,0,7,7,40,1,beach,invisiblesun,noclouds,5,"1028.5714285714284,500",
,,,,,,,de,de,de,x,22,,2021-08-02_22h55.53.864,online_experiment,2021.1.4,MacIntel,58.82352941,FALSE,,"Mozilla/5.0 (Macintosh; Intel Mac OS X 10_14_6) AppleWebKit/605.1.15 (KHTML, like Gecko) Version/14.1.1 Safari/605.1.15",1292,740,1440,900,,,,,,,,7,2.13,0.364444444,-0.396666667,1,0,0,next_trial_button,0,8,8,18,1,beach,visiblesun,noclouds,2,"666.6666666666666,500",
,,,,,,,de,de,de,x,22,,2021-08-02_22h55.53.864,online_experiment,2021.1.4,MacIntel,58.82352941,FALSE,,"Mozilla/5.0 (Macintosh; Intel Mac OS X 10_14_6) AppleWebKit/605.1.15 (KHTML, like Gecko) Version/14.1.1 Safari/605.1.15",1292,740,1440,900,,,,,,,,7,1.86,0.344444444,-0.431111111,1,0,0,next_trial_button,0,9,9,21,1,landscape,invisiblesun,yesclouds,2,"750,500",
,,,,,,,de,de,de,x,22,,2021-08-02_22h55.53.864,online_experiment,2021.1.4,MacIntel,58.82352941,FALSE,,"Mozilla/5.0 (Macintosh; Intel Mac OS X 10_14_6) AppleWebKit/605.1.15 (KHTML, like Gecko) Version/14.1.1 Safari/605.1.15",1292,740,1440,900,,,,,,,,7,1.582,0.382222222,-0.404444444,1,0,0,next_trial_button,0,10,10,11,1,beach,visiblesun,yesclouds,1,"989.8132427843803,500",
,,,,,,,de,de,de,x,22,,2021-08-02_22h55.53.864,online_experiment,2021.1.4,MacIntel,58.82352941,FALSE,,"Mozilla/5.0 (Macintosh; Intel Mac OS X 10_14_6) AppleWebKit/605.1.15 (KHTML, like Gecko) Version/14.1.1 Safari/605.1.15",1292,740,1440,900,,,,,,,,4,2.009,0.358888889,-0.4,1,0,0,next_trial_button,0,11,11,59,1,beach,visiblesun,yesclouds,7,"888.9689978370584,500",
,,,,,,,de,de,de,x,22,,2021-08-02_22h55.53.864,online_experiment,2021.1.4,MacIntel,58.82352941,FALSE,,"Mozilla/5.0 (Macintosh; Intel Mac OS X 10_14_6) AppleWebKit/605.1.15 (KHTML, like Gecko) Version/14.1.1 Safari/605.1.15",1292,740,1440,900,,,,,,,,3,1.815,0.385555556,-0.422222222,1,0,0,next_trial_button,0,12,12,32,1,beach,invisiblesun,noclouds,4,"750,500",
,,,,,,,de,de,de,x,22,,2021-08-02_22h55.53.864,online_experiment,2021.1.4,MacIntel,58.82352941,FALSE,,"Mozilla/5.0 (Macintosh; Intel Mac OS X 10_14_6) AppleWebKit/605.1.15 (KHTML, like Gecko) Version/14.1.1 Safari/605.1.15",1292,740,1440,900,,,,,,,,7,1.975,0.366666667,-0.438888889,1,0,0,next_trial_button,0,13,13,2,1,beach,visiblesun,noclouds,0,"375,500",
,,,,,,,de,de,de,x,22,,2021-08-02_22h55.53.864,online_experiment,2021.1.4,MacIntel,58.82352941,FALSE,,"Mozilla/5.0 (Macintosh; Intel Mac OS X 10_14_6) AppleWebKit/605.1.15 (KHTML, like Gecko) Version/14.1.1 Safari/605.1.15",1292,740,1440,900,,,,,,,,2,2.194,0.356666667,-0.441111111,1,0,0,next_trial_button,0,14,14,76,1,landscape,invisiblesun,noclouds,9,"1056.6037735849056,500",
,,,,,,,de,de,de,x,22,,2021-08-02_22h55.53.864,online_experiment,2021.1.4,MacIntel,58.82352941,FALSE,,"Mozilla/5.0 (Macintosh; Intel Mac OS X 10_14_6) AppleWebKit/605.1.15 (KHTML, like Gecko) Version/14.1.1 Safari/605.1.15",1292,740,1440,900,,,,,,,,3,2.131,0.392222222,-0.403333333,1,0,0,next_trial_button,0,15,15,63,1,landscape,visiblesun,yesclouds,7,"331.94444444444446,500",
,,,,,,,de,de,de,x,22,,2021-08-02_22h55.53.864,online_experiment,2021.1.4,MacIntel,58.82352941,FALSE,,"Mozilla/5.0 (Macintosh; Intel Mac OS X 10_14_6) AppleWebKit/605.1.15 (KHTML, like Gecko) Version/14.1.1 Safari/605.1.15",1292,740,1440,900,,,,,,,,4,1.642,0.357777778,-0.395555556,1,0,0,next_trial_button,0,16,16,64,1,beach,invisiblesun,noclouds,8,"1028.5714285714284,500",
,,,,,,,de,de,de,x,22,,2021-08-02_22h55.53.864,online_experiment,2021.1.4,MacIntel,58.82352941,FALSE,,"Mozilla/5.0 (Macintosh; Intel Mac OS X 10_14_6) AppleWebKit/605.1.15 (KHTML, like Gecko) Version/14.1.1 Safari/605.1.15",1292,740,1440,900,,,,,,,,6,1.649,0.443333333,-0.431111111,1,0,0,next_trial_button,0,17,17,24,1,beach,invisiblesun,noclouds,3,"750.089190153407,500",
,,,,,,,de,de,de,x,22,,2021-08-02_22h55.53.864,online_experiment,2021.1.4,MacIntel,58.82352941,FALSE,,"Mozilla/5.0 (Macintosh; Intel Mac OS X 10_14_6) AppleWebKit/605.1.15 (KHTML, like Gecko) Version/14.1.1 Safari/605.1.15",1292,740,1440,900,,,,,,,,5,1.6,0.375555556,-0.442222222,1,0,0,next_trial_button,0,18,18,31,1,landscape,visiblesun,yesclouds,3,"638.0622837370242,500",
,,,,,,,de,de,de,x,22,,2021-08-02_22h55.53.864,online_experiment,2021.1.4,MacIntel,58.82352941,FALSE,,"Mozilla/5.0 (Macintosh; Intel Mac OS X 10_14_6) AppleWebKit/605.1.15 (KHTML, like Gecko) Version/14.1.1 Safari/605.1.15",1292,740,1440,900,,,,,,,,3,1.947,0.398888889,-0.414444444,1,0,0,next_trial_button,0,19,19,14,1,landscape,visiblesun,noclouds,1,"745.9919839679359,500",
,,,,,,,de,de,de,x,22,,2021-08-02_22h55.53.864,online_experiment,2021.1.4,MacIntel,58.82352941,FALSE,,"Mozilla/5.0 (Macintosh; Intel Mac OS X 10_14_6) AppleWebKit/605.1.15 (KHTML, like Gecko) Version/14.1.1 Safari/605.1.15",1292,740,1440,900,,,,,,,,3,2.214,0.375555556,-0.427777778,1,0,0,next_trial_button,0,20,20,0,1,beach,invisiblesun,noclouds,0,"750,500",
,,,,,,,de,de,de,x,22,,2021-08-02_22h55.53.864,online_experiment,2021.1.4,MacIntel,58.82352941,FALSE,,"Mozilla/5.0 (Macintosh; Intel Mac OS X 10_14_6) AppleWebKit/605.1.15 (KHTML, like Gecko) Version/14.1.1 Safari/605.1.15",1292,740,1440,900,,,,,,,,7,1.758,0.363333333,-0.398888889,1,0,0,next_trial_button,0,21,21,27,1,beach,visiblesun,yesclouds,3,"752.8089887640449,500",
,,,,,,,de,de,de,x,22,,2021-08-02_22h55.53.864,online_experiment,2021.1.4,MacIntel,58.82352941,FALSE,,"Mozilla/5.0 (Macintosh; Intel Mac OS X 10_14_6) AppleWebKit/605.1.15 (KHTML, like Gecko) Version/14.1.1 Safari/605.1.15",1292,740,1440,900,,,,,,,,1,1.815,0.376666667,-0.407777778,1,0,0,next_trial_button,0,22,22,28,1,landscape,invisiblesun,noclouds,3,"888.8888888888888,500",
,,,,,,,de,de,de,x,22,,2021-08-02_22h55.53.864,online_experiment,2021.1.4,MacIntel,58.82352941,FALSE,,"Mozilla/5.0 (Macintosh; Intel Mac OS X 10_14_6) AppleWebKit/605.1.15 (KHTML, like Gecko) Version/14.1.1 Safari/605.1.15",1292,740,1440,900,,,,,,,,7,2.229,0.423333333,-0.437777778,1,0,0,next_trial_button,0,23,23,49,1,beach,invisiblesun,yesclouds,6,"858.4474885844749,500",
,,,,,,,de,de,de,x,22,,2021-08-02_22h55.53.864,online_experiment,2021.1.4,MacIntel,58.82352941,FALSE,,"Mozilla/5.0 (Macintosh; Intel Mac OS X 10_14_6) AppleWebKit/605.1.15 (KHTML, like Gecko) Version/14.1.1 Safari/605.1.15",1292,740,1440,900,,,,,,,,5,1.761,0.375555556,-0.412222222,1,0,0,next_trial_button,0,24,24,73,1,beach,invisiblesun,yesclouds,9,"1028.5714285714284,500",
,,,,,,,de,de,de,x,22,,2021-08-02_22h55.53.864,online_experiment,2021.1.4,MacIntel,58.82352941,FALSE,,"Mozilla/5.0 (Macintosh; Intel Mac OS X 10_14_6) AppleWebKit/605.1.15 (KHTML, like Gecko) Version/14.1.1 Safari/605.1.15",1292,740,1440,900,,,,,,,,3,1.93,0.384444444,-0.396666667,1,0,0,next_trial_button,0,25,25,71,1,landscape,visiblesun,yesclouds,8,"666.6666666666666,500",
,,,,,,,de,de,de,x,22,,2021-08-02_22h55.53.864,online_experiment,2021.1.4,MacIntel,58.82352941,FALSE,,"Mozilla/5.0 (Macintosh; Intel Mac OS X 10_14_6) AppleWebKit/605.1.15 (KHTML, like Gecko) Version/14.1.1 Safari/605.1.15",1292,740,1440,900,,,,,,,,4,2.295,0.41,-0.414444444,1,0,0,next_trial_button,0,26,26,22,1,landscape,visiblesun,noclouds,2,"749.3333333333333,500",
,,,,,,,de,de,de,x,22,,2021-08-02_22h55.53.864,online_experiment,2021.1.4,MacIntel,58.82352941,FALSE,,"Mozilla/5.0 (Macintosh; Intel Mac OS X 10_14_6) AppleWebKit/605.1.15 (KHTML, like Gecko) Version/14.1.1 Safari/605.1.15",1292,740,1440,900,,,,,,,,3,2.181,0.416666667,-0.405555556,1,0,0,next_trial_button,0,27,27,33,1,beach,invisiblesun,yesclouds,4,"751.5473032714411,500",
,,,,,,,de,de,de,x,22,,2021-08-02_22h55.53.864,online_experiment,2021.1.4,MacIntel,58.82352941,FALSE,,"Mozilla/5.0 (Macintosh; Intel Mac OS X 10_14_6) AppleWebKit/605.1.15 (KHTML, like Gecko) Version/14.1.1 Safari/605.1.15",1292,740,1440,900,,,,,,,,4,1.865,0.386666667,-0.423333333,1,0,0,next_trial_button,0,28,28,8,1,beach,invisiblesun,noclouds,1,"1215.1898734177216,500",
,,,,,,,de,de,de,x,22,,2021-08-02_22h55.53.864,online_experiment,2021.1.4,MacIntel,58.82352941,FALSE,,"Mozilla/5.0 (Macintosh; Intel Mac OS X 10_14_6) AppleWebKit/605.1.15 (KHTML, like Gecko) Version/14.1.1 Safari/605.1.15",1292,740,1440,900,,,,,,,,9,1.925,0.463333333,-0.418888889,1,0,0,next_trial_button,0,29,29,41,1,beach,invisiblesun,yesclouds,5,"1248.4394506866417,500",
,,,,,,,de,de,de,x,22,,2021-08-02_22h55.53.864,online_experiment,2021.1.4,MacIntel,58.82352941,FALSE,,"Mozilla/5.0 (Macintosh; Intel Mac OS X 10_14_6) AppleWebKit/605.1.15 (KHTML, like Gecko) Version/14.1.1 Safari/605.1.15",1292,740,1440,900,,,,,,,,10,1.58,0.378888889,-0.426666667,1,0,0,next_trial_button,0,30,30,37,1,landscape,invisiblesun,yesclouds,4,"669.4214876033058,500",
,,,,,,,de,de,de,x,22,,2021-08-02_22h55.53.864,online_experiment,2021.1.4,MacIntel,58.82352941,FALSE,,"Mozilla/5.0 (Macintosh; Intel Mac OS X 10_14_6) AppleWebKit/605.1.15 (KHTML, like Gecko) Version/14.1.1 Safari/605.1.15",1292,740,1440,900,,,,,,,,7,1.709,0.448888889,-0.426666667,1,0,0,next_trial_button,0,31,31,42,1,beach,visiblesun,noclouds,5,"834.4594594594595,500",
,,,,,,,de,de,de,x,22,,2021-08-02_22h55.53.864,online_experiment,2021.1.4,MacIntel,58.82352941,FALSE,,"Mozilla/5.0 (Macintosh; Intel Mac OS X 10_14_6) AppleWebKit/605.1.15 (KHTML, like Gecko) Version/14.1.1 Safari/605.1.15",1292,740,1440,900,,,,,,,,1,1.612,0.445555556,-0.427777778,1,0,0,next_trial_button,0,32,32,72,1,beach,invisiblesun,noclouds,9,"888.8888888888888,500",
,,,,,,,de,de,de,x,22,,2021-08-02_22h55.53.864,online_experiment,2021.1.4,MacIntel,58.82352941,FALSE,,"Mozilla/5.0 (Macintosh; Intel Mac OS X 10_14_6) AppleWebKit/605.1.15 (KHTML, like Gecko) Version/14.1.1 Safari/605.1.15",1292,740,1440,900,,,,,,,,4,1.962,0.326666667,-0.418888889,1,0,0,next_trial_button,0,33,33,65,1,beach,invisiblesun,yesclouds,8,"750,500",
,,,,,,,de,de,de,x,22,,2021-08-02_22h55.53.864,online_experiment,2021.1.4,MacIntel,58.82352941,FALSE,,"Mozilla/5.0 (Macintosh; Intel Mac OS X 10_14_6) AppleWebKit/605.1.15 (KHTML, like Gecko) Version/14.1.1 Safari/605.1.15",1292,740,1440,900,,,,,,,,2,1.981,0.422222222,-0.427777778,1,0,0,next_trial_button,0,34,34,56,1,beach,invisiblesun,noclouds,7,"1028.5714285714284,500",
,,,,,,,de,de,de,x,22,,2021-08-02_22h55.53.864,online_experiment,2021.1.4,MacIntel,58.82352941,FALSE,,"Mozilla/5.0 (Macintosh; Intel Mac OS X 10_14_6) AppleWebKit/605.1.15 (KHTML, like Gecko) Version/14.1.1 Safari/605.1.15",1292,740,1440,900,,,,,,,,4,1.977,0.382222222,-0.396666667,1,0,0,next_trial_button,0,35,35,62,1,landscape,visiblesun,noclouds,7,"417.42389822807814,500",
,,,,,,,de,de,de,x,22,,2021-08-02_22h55.53.864,online_experiment,2021.1.4,MacIntel,58.82352941,FALSE,,"Mozilla/5.0 (Macintosh; Intel Mac OS X 10_14_6) AppleWebKit/605.1.15 (KHTML, like Gecko) Version/14.1.1 Safari/605.1.15",1292,740,1440,900,,,,,,,,3,4.444,0.434444444,-0.421111111,1,0,0,next_trial_button,0,36,36,44,1,landscape,invisiblesun,noclouds,5,"666.6666666666666,500",
,,,,,,,de,de,de,x,22,,2021-08-02_22h55.53.864,online_experiment,2021.1.4,MacIntel,58.82352941,FALSE,,"Mozilla/5.0 (Macintosh; Intel Mac OS X 10_14_6) AppleWebKit/605.1.15 (KHTML, like Gecko) Version/14.1.1 Safari/605.1.15",1292,740,1440,900,,,,,,,,1,1.71,0.483333333,-0.433333333,1,0,0,next_trial_button,0,37,37,69,1,landscape,invisiblesun,yesclouds,8,"750,500",
,,,,,,,de,de,de,x,22,,2021-08-02_22h55.53.864,online_experiment,2021.1.4,MacIntel,58.82352941,FALSE,,"Mozilla/5.0 (Macintosh; Intel Mac OS X 10_14_6) AppleWebKit/605.1.15 (KHTML, like Gecko) Version/14.1.1 Safari/605.1.15",1292,740,1440,900,,,,,,,,5,1.963,0.352222222,-0.402222222,1,0,0,next_trial_button,0,38,38,54,1,landscape,visiblesun,noclouds,6,"695.0043821209465,500",
,,,,,,,de,de,de,x,22,,2021-08-02_22h55.53.864,online_experiment,2021.1.4,MacIntel,58.82352941,FALSE,,"Mozilla/5.0 (Macintosh; Intel Mac OS X 10_14_6) AppleWebKit/605.1.15 (KHTML, like Gecko) Version/14.1.1 Safari/605.1.15",1292,740,1440,900,,,,,,,,10,1.866,0.437777778,-0.423333333,1,0,0,next_trial_button,0,39,39,61,1,landscape,invisiblesun,yesclouds,7,"500,500",
,,,,,,,de,de,de,x,22,,2021-08-02_22h55.53.864,online_experiment,2021.1.4,MacIntel,58.82352941,FALSE,,"Mozilla/5.0 (Macintosh; Intel Mac OS X 10_14_6) AppleWebKit/605.1.15 (KHTML, like Gecko) Version/14.1.1 Safari/605.1.15",1292,740,1440,900,,,,,,,,10,1.61,0.472222222,-0.43,1,0,0,next_trial_button,0,40,40,4,1,landscape,invisiblesun,noclouds,0,"1276.9171185127807,500",
,,,,,,,de,de,de,x,22,,2021-08-02_22h55.53.864,online_experiment,2021.1.4,MacIntel,58.82352941,FALSE,,"Mozilla/5.0 (Macintosh; Intel Mac OS X 10_14_6) AppleWebKit/605.1.15 (KHTML, like Gecko) Version/14.1.1 Safari/605.1.15",1292,740,1440,900,,,,,,,,1,1.877,0.413333333,-0.411111111,1,0,0,next_trial_button,0,41,41,60,1,landscape,invisiblesun,noclouds,7,"666.7268134247564,500",
,,,,,,,de,de,de,x,22,,2021-08-02_22h55.53.864,online_experiment,2021.1.4,MacIntel,58.82352941,FALSE,,"Mozilla/5.0 (Macintosh; Intel Mac OS X 10_14_6) AppleWebKit/605.1.15 (KHTML, like Gecko) Version/14.1.1 Safari/605.1.15",1292,740,1440,900,,,,,,,,9,1.565,0.42,-0.424444444,1,0,0,next_trial_button,0,42,42,35,1,beach,visiblesun,yesclouds,4,"750,500",
,,,,,,,de,de,de,x,22,,2021-08-02_22h55.53.864,online_experiment,2021.1.4,MacIntel,58.82352941,FALSE,,"Mozilla/5.0 (Macintosh; Intel Mac OS X 10_14_6) AppleWebKit/605.1.15 (KHTML, like Gecko) Version/14.1.1 Safari/605.1.15",1292,740,1440,900,,,,,,,,6,1.745,0.474444444,-0.414444444,1,0,0,next_trial_button,0,43,43,23,1,landscape,visiblesun,yesclouds,2,"767.97829036635,500",
,,,,,,,de,de,de,x,22,,2021-08-02_22h55.53.864,online_experiment,2021.1.4,MacIntel,58.82352941,FALSE,,"Mozilla/5.0 (Macintosh; Intel Mac OS X 10_14_6) AppleWebKit/605.1.15 (KHTML, like Gecko) Version/14.1.1 Safari/605.1.15",1292,740,1440,900,,,,,,,,6,1.694,0.464444444,-0.405555556,1,0,0,next_trial_button,0,44,44,58,1,beach,visiblesun,noclouds,7,"1028.5714285714284,500",
,,,,,,,de,de,de,x,22,,2021-08-02_22h55.53.864,online_experiment,2021.1.4,MacIntel,58.82352941,FALSE,,"Mozilla/5.0 (Macintosh; Intel Mac OS X 10_14_6) AppleWebKit/605.1.15 (KHTML, like Gecko) Version/14.1.1 Safari/605.1.15",1292,740,1440,900,,,,,,,,10,1.698,0.388888889,-0.397777778,1,0,0,next_trial_button,0,45,45,52,1,landscape,invisiblesun,noclouds,6,"666.6666666666666,500",
,,,,,,,de,de,de,x,22,,2021-08-02_22h55.53.864,online_experiment,2021.1.4,MacIntel,58.82352941,FALSE,,"Mozilla/5.0 (Macintosh; Intel Mac OS X 10_14_6) AppleWebKit/605.1.15 (KHTML, like Gecko) Version/14.1.1 Safari/605.1.15",1292,740,1440,900,,,,,,,,8,1.68,0.344444444,-0.422222222,1,0,0,next_trial_button,0,46,46,75,1,beach,visiblesun,yesclouds,9,"1029.6010296010297,500",
,,,,,,,de,de,de,x,22,,2021-08-02_22h55.53.864,online_experiment,2021.1.4,MacIntel,58.82352941,FALSE,,"Mozilla/5.0 (Macintosh; Intel Mac OS X 10_14_6) AppleWebKit/605.1.15 (KHTML, like Gecko) Version/14.1.1 Safari/605.1.15",1292,740,1440,900,,,,,,,,7,1.833,0.358888889,-0.412222222,1,0,0,next_trial_button,0,47,47,19,1,beach,visiblesun,yesclouds,2,"770.1393095093882,500",
,,,,,,,de,de,de,x,22,,2021-08-02_22h55.53.864,online_experiment,2021.1.4,MacIntel,58.82352941,FALSE,,"Mozilla/5.0 (Macintosh; Intel Mac OS X 10_14_6) AppleWebKit/605.1.15 (KHTML, like Gecko) Version/14.1.1 Safari/605.1.15",1292,740,1440,900,,,,,,,,5,3.032,0.38,-0.435555556,1,0,0,next_trial_button,0,48,48,17,1,beach,invisiblesun,yesclouds,2,"684.8635235732011,500",
,,,,,,,de,de,de,x,22,,2021-08-02_22h55.53.864,online_experiment,2021.1.4,MacIntel,58.82352941,FALSE,,"Mozilla/5.0 (Macintosh; Intel Mac OS X 10_14_6) AppleWebKit/605.1.15 (KHTML, like Gecko) Version/14.1.1 Safari/605.1.15",1292,740,1440,900,,,,,,,,8,3.06,0.388888889,-0.428888889,1,0,0,next_trial_button,0,49,49,53,1,landscape,invisiblesun,yesclouds,6,"750.0695023630803,500",
,,,,,,,de,de,de,x,22,,2021-08-02_22h55.53.864,online_experiment,2021.1.4,MacIntel,58.82352941,FALSE,,"Mozilla/5.0 (Macintosh; Intel Mac OS X 10_14_6) AppleWebKit/605.1.15 (KHTML, like Gecko) Version/14.1.1 Safari/605.1.15",1292,740,1440,900,,,,,,,,6,1.899,0.32,-0.436666667,1,0,0,next_trial_button,0,50,50,10,1,beach,visiblesun,noclouds,1,"747.0261697065821,500",
,,,,,,,de,de,de,x,22,,2021-08-02_22h55.53.864,online_experiment,2021.1.4,MacIntel,58.82352941,FALSE,,"Mozilla/5.0 (Macintosh; Intel Mac OS X 10_14_6) AppleWebKit/605.1.15 (KHTML, like Gecko) Version/14.1.1 Safari/605.1.15",1292,740,1440,900,,,,,,,,6,2.411,0.46,-0.426666667,1,0,0,next_trial_button,0,51,51,57,1,beach,invisiblesun,yesclouds,7,"749.707488299532,500",
,,,,,,,de,de,de,x,22,,2021-08-02_22h55.53.864,online_experiment,2021.1.4,MacIntel,58.82352941,FALSE,,"Mozilla/5.0 (Macintosh; Intel Mac OS X 10_14_6) AppleWebKit/605.1.15 (KHTML, like Gecko) Version/14.1.1 Safari/605.1.15",1292,740,1440,900,,,,,,,,7,1.882,0.398888889,-0.415555556,1,0,0,next_trial_button,0,52,52,9,1,beach,invisiblesun,yesclouds,1,"750,500",
,,,,,,,de,de,de,x,22,,2021-08-02_22h55.53.864,online_experiment,2021.1.4,MacIntel,58.82352941,FALSE,,"Mozilla/5.0 (Macintosh; Intel Mac OS X 10_14_6) AppleWebKit/605.1.15 (KHTML, like Gecko) Version/14.1.1 Safari/605.1.15",1292,740,1440,900,,,,,,,,4,2.016,0.376666667,-0.373333333,1,0,0,next_trial_button,0,53,53,55,1,landscape,visiblesun,yesclouds,6,"749.8819083608881,500",
,,,,,,,de,de,de,x,22,,2021-08-02_22h55.53.864,online_experiment,2021.1.4,MacIntel,58.82352941,FALSE,,"Mozilla/5.0 (Macintosh; Intel Mac OS X 10_14_6) AppleWebKit/605.1.15 (KHTML, like Gecko) Version/14.1.1 Safari/605.1.15",1292,740,1440,900,,,,,,,,9,2.262,0.384444444,-0.435555556,1,0,0,next_trial_button,0,54,54,36,1,landscape,invisiblesun,noclouds,4,"281.25,500",
,,,,,,,de,de,de,x,22,,2021-08-02_22h55.53.864,online_experiment,2021.1.4,MacIntel,58.82352941,FALSE,,"Mozilla/5.0 (Macintosh; Intel Mac OS X 10_14_6) AppleWebKit/605.1.15 (KHTML, like Gecko) Version/14.1.1 Safari/605.1.15",1292,740,1440,900,,,,,,,,4,2.362,0.366666667,-0.396666667,1,0,0,next_trial_button,0,55,55,5,1,landscape,invisiblesun,yesclouds,0,"750.4690431519699,500",
,,,,,,,de,de,de,x,22,,2021-08-02_22h55.53.864,online_experiment,2021.1.4,MacIntel,58.82352941,FALSE,,"Mozilla/5.0 (Macintosh; Intel Mac OS X 10_14_6) AppleWebKit/605.1.15 (KHTML, like Gecko) Version/14.1.1 Safari/605.1.15",1292,740,1440,900,,,,,,,,3,2.016,0.406666667,-0.444444444,1,0,0,next_trial_button,0,56,56,16,1,beach,invisiblesun,noclouds,2,"752.8089887640449,500",
,,,,,,,de,de,de,x,22,,2021-08-02_22h55.53.864,online_experiment,2021.1.4,MacIntel,58.82352941,FALSE,,"Mozilla/5.0 (Macintosh; Intel Mac OS X 10_14_6) AppleWebKit/605.1.15 (KHTML, like Gecko) Version/14.1.1 Safari/605.1.15",1292,740,1440,900,,,,,,,,1,2.266,0.408888889,-0.413333333,1,0,0,next_trial_button,0,57,57,7,1,landscape,visiblesun,yesclouds,0,"743.421052631579,500",
,,,,,,,de,de,de,x,22,,2021-08-02_22h55.53.864,online_experiment,2021.1.4,MacIntel,58.82352941,FALSE,,"Mozilla/5.0 (Macintosh; Intel Mac OS X 10_14_6) AppleWebKit/605.1.15 (KHTML, like Gecko) Version/14.1.1 Safari/605.1.15",1292,740,1440,900,,,,,,,,4,2.165,0.358888889,-0.44,1,0,0,next_trial_button,0,58,58,47,1,landscape,visiblesun,yesclouds,5,"666.6666666666666,500",
,,,,,,,de,de,de,x,22,,2021-08-02_22h55.53.864,online_experiment,2021.1.4,MacIntel,58.82352941,FALSE,,"Mozilla/5.0 (Macintosh; Intel Mac OS X 10_14_6) AppleWebKit/605.1.15 (KHTML, like Gecko) Version/14.1.1 Safari/605.1.15",1292,740,1440,900,,,,,,,,3,2.015,0.32,-0.406666667,1,0,0,next_trial_button,0,59,59,70,1,landscape,visiblesun,noclouds,8,"666.6666666666666,500",
,,,,,,,de,de,de,x,22,,2021-08-02_22h55.53.864,online_experiment,2021.1.4,MacIntel,58.82352941,FALSE,,"Mozilla/5.0 (Macintosh; Intel Mac OS X 10_14_6) AppleWebKit/605.1.15 (KHTML, like Gecko) Version/14.1.1 Safari/605.1.15",1292,740,1440,900,,,,,,,,3,2.215,0.422222222,-0.437777778,1,0,0,next_trial_button,0,60,60,67,1,beach,visiblesun,yesclouds,8,"748.1481481481482,500",
,,,,,,,de,de,de,x,22,,2021-08-02_22h55.53.864,online_experiment,2021.1.4,MacIntel,58.82352941,FALSE,,"Mozilla/5.0 (Macintosh; Intel Mac OS X 10_14_6) AppleWebKit/605.1.15 (KHTML, like Gecko) Version/14.1.1 Safari/605.1.15",1292,740,1440,900,,,,,,,,6,1.83,0.374444444,-0.407777778,1,0,0,next_trial_button,0,61,61,3,1,beach,visiblesun,yesclouds,0,"1152.5122276567363,500",
,,,,,,,de,de,de,x,22,,2021-08-02_22h55.53.864,online_experiment,2021.1.4,MacIntel,58.82352941,FALSE,,"Mozilla/5.0 (Macintosh; Intel Mac OS X 10_14_6) AppleWebKit/605.1.15 (KHTML, like Gecko) Version/14.1.1 Safari/605.1.15",1292,740,1440,900,,,,,,,,4,1.765,0.485555556,-0.39,1,0,0,next_trial_button,0,62,62,30,1,landscape,visiblesun,noclouds,3,"346.3035019455253,500",
,,,,,,,de,de,de,x,22,,2021-08-02_22h55.53.864,online_experiment,2021.1.4,MacIntel,58.82352941,FALSE,,"Mozilla/5.0 (Macintosh; Intel Mac OS X 10_14_6) AppleWebKit/605.1.15 (KHTML, like Gecko) Version/14.1.1 Safari/605.1.15",1292,740,1440,900,,,,,,,,4,2.296,0.431111111,-0.451111111,1,0,0,next_trial_button,0,63,63,66,1,beach,visiblesun,noclouds,8,"1028.5714285714284,500",
,,,,,,,de,de,de,x,22,,2021-08-02_22h55.53.864,online_experiment,2021.1.4,MacIntel,58.82352941,FALSE,,"Mozilla/5.0 (Macintosh; Intel Mac OS X 10_14_6) AppleWebKit/605.1.15 (KHTML, like Gecko) Version/14.1.1 Safari/605.1.15",1292,740,1440,900,,,,,,,,3,1.699,0.345555556,-0.416666667,1,0,0,next_trial_button,0,64,64,51,1,beach,visiblesun,yesclouds,6,"657.1279916753382,500",
,,,,,,,de,de,de,x,22,,2021-08-02_22h55.53.864,online_experiment,2021.1.4,MacIntel,58.82352941,FALSE,,"Mozilla/5.0 (Macintosh; Intel Mac OS X 10_14_6) AppleWebKit/605.1.15 (KHTML, like Gecko) Version/14.1.1 Safari/605.1.15",1292,740,1440,900,,,,,,,,4,1.845,0.333333333,-0.407777778,1,0,0,next_trial_button,0,65,65,13,1,landscape,invisiblesun,yesclouds,1,"783.1192660550458,500",
,,,,,,,de,de,de,x,22,,2021-08-02_22h55.53.864,online_experiment,2021.1.4,MacIntel,58.82352941,FALSE,,"Mozilla/5.0 (Macintosh; Intel Mac OS X 10_14_6) AppleWebKit/605.1.15 (KHTML, like Gecko) Version/14.1.1 Safari/605.1.15",1292,740,1440,900,,,,,,,,3,2.18,0.455555556,-0.417777778,1,0,0,next_trial_button,0,66,66,34,1,beach,visiblesun,noclouds,4,"749.6251874062968,500",
,,,,,,,de,de,de,x,22,,2021-08-02_22h55.53.864,online_experiment,2021.1.4,MacIntel,58.82352941,FALSE,,"Mozilla/5.0 (Macintosh; Intel Mac OS X 10_14_6) AppleWebKit/605.1.15 (KHTML, like Gecko) Version/14.1.1 Safari/605.1.15",1292,740,1440,900,,,,,,,,1,1.832,0.347777778,-0.41,1,0,0,next_trial_button,0,67,67,79,1,landscape,visiblesun,yesclouds,9,"1028.5714285714284,500",
,,,,,,,de,de,de,x,22,,2021-08-02_22h55.53.864,online_experiment,2021.1.4,MacIntel,58.82352941,FALSE,,"Mozilla/5.0 (Macintosh; Intel Mac OS X 10_14_6) AppleWebKit/605.1.15 (KHTML, like Gecko) Version/14.1.1 Safari/605.1.15",1292,740,1440,900,,,,,,,,3,1.796,0.362222222,-0.413333333,1,0,0,next_trial_button,0,68,68,12,1,landscape,invisiblesun,noclouds,1,"666.6666666666666,500",
,,,,,,,de,de,de,x,22,,2021-08-02_22h55.53.864,online_experiment,2021.1.4,MacIntel,58.82352941,FALSE,,"Mozilla/5.0 (Macintosh; Intel Mac OS X 10_14_6) AppleWebKit/605.1.15 (KHTML, like Gecko) Version/14.1.1 Safari/605.1.15",1292,740,1440,900,,,,,,,,10,1.792,0.492222222,-0.398888889,1,0,0,next_trial_button,0,69,69,15,1,landscape,visiblesun,yesclouds,1,"333.3333333333333,500",
,,,,,,,de,de,de,x,22,,2021-08-02_22h55.53.864,online_experiment,2021.1.4,MacIntel,58.82352941,FALSE,,"Mozilla/5.0 (Macintosh; Intel Mac OS X 10_14_6) AppleWebKit/605.1.15 (KHTML, like Gecko) Version/14.1.1 Safari/605.1.15",1292,740,1440,900,,,,,,,,8,1.665,0.438888889,-0.41,1,0,0,next_trial_button,0,70,70,77,1,landscape,invisiblesun,yesclouds,9,"888.8888888888888,500",
,,,,,,,de,de,de,x,22,,2021-08-02_22h55.53.864,online_experiment,2021.1.4,MacIntel,58.82352941,FALSE,,"Mozilla/5.0 (Macintosh; Intel Mac OS X 10_14_6) AppleWebKit/605.1.15 (KHTML, like Gecko) Version/14.1.1 Safari/605.1.15",1292,740,1440,900,,,,,,,,6,1.548,0.488888889,-0.422222222,1,0,0,next_trial_button,0,71,71,1,1,beach,invisiblesun,yesclouds,0,"666.6666666666666,500",
,,,,,,,de,de,de,x,22,,2021-08-02_22h55.53.864,online_experiment,2021.1.4,MacIntel,58.82352941,FALSE,,"Mozilla/5.0 (Macintosh; Intel Mac OS X 10_14_6) AppleWebKit/605.1.15 (KHTML, like Gecko) Version/14.1.1 Safari/605.1.15",1292,740,1440,900,,,,,,,,1,1.632,0.405555556,-0.41,1,0,0,next_trial_button,0,72,72,38,1,landscape,visiblesun,noclouds,4,"733.3333333333333,500",
,,,,,,,de,de,de,x,22,,2021-08-02_22h55.53.864,online_experiment,2021.1.4,MacIntel,58.82352941,FALSE,,"Mozilla/5.0 (Macintosh; Intel Mac OS X 10_14_6) AppleWebKit/605.1.15 (KHTML, like Gecko) Version/14.1.1 Safari/605.1.15",1292,740,1440,900,,,,,,,,3,1.582,0.414444444,-0.422222222,1,0,0,next_trial_button,0,73,73,50,1,beach,visiblesun,noclouds,6,"666.6666666666666,500",
,,,,,,,de,de,de,x,22,,2021-08-02_22h55.53.864,online_experiment,2021.1.4,MacIntel,58.82352941,FALSE,,"Mozilla/5.0 (Macintosh; Intel Mac OS X 10_14_6) AppleWebKit/605.1.15 (KHTML, like Gecko) Version/14.1.1 Safari/605.1.15",1292,740,1440,900,,,,,,,,8,2.715,0.474444444,-0.436666667,1,0,0,next_trial_button,0,74,74,20,1,landscape,invisiblesun,noclouds,2,"755.192878338279,500",
,,,,,,,de,de,de,x,22,,2021-08-02_22h55.53.864,online_experiment,2021.1.4,MacIntel,58.82352941,FALSE,,"Mozilla/5.0 (Macintosh; Intel Mac OS X 10_14_6) AppleWebKit/605.1.15 (KHTML, like Gecko) Version/14.1.1 Safari/605.1.15",1292,740,1440,900,,,,,,,,2,1.715,0.355555556,-0.434444444,1,0,0,next_trial_button,0,75,75,48,1,beach,invisiblesun,noclouds,6,"1028.5714285714284,500",
,,,,,,,de,de,de,x,22,,2021-08-02_22h55.53.864,online_experiment,2021.1.4,MacIntel,58.82352941,FALSE,,"Mozilla/5.0 (Macintosh; Intel Mac OS X 10_14_6) AppleWebKit/605.1.15 (KHTML, like Gecko) Version/14.1.1 Safari/605.1.15",1292,740,1440,900,,,,,,,,1,1.726,0.373333333,-0.414444444,1,0,0,next_trial_button,0,76,76,68,1,landscape,invisiblesun,noclouds,8,"666.6666666666666,500",
,,,,,,,de,de,de,x,22,,2021-08-02_22h55.53.864,online_experiment,2021.1.4,MacIntel,58.82352941,FALSE,,"Mozilla/5.0 (Macintosh; Intel Mac OS X 10_14_6) AppleWebKit/605.1.15 (KHTML, like Gecko) Version/14.1.1 Safari/605.1.15",1292,740,1440,900,,,,,,,,4,1.781,0.474444444,-0.425555556,1,0,0,next_trial_button,0,77,77,25,1,beach,invisiblesun,yesclouds,3,"750.4690431519699,500",
,,,,,,,de,de,de,x,22,,2021-08-02_22h55.53.864,online_experiment,2021.1.4,MacIntel,58.82352941,FALSE,,"Mozilla/5.0 (Macintosh; Intel Mac OS X 10_14_6) AppleWebKit/605.1.15 (KHTML, like Gecko) Version/14.1.1 Safari/605.1.15",1292,740,1440,900,,,,,,,,4,1.933,0.363333333,-0.434444444,1,0,0,next_trial_button,0,78,78,29,1,landscape,invisiblesun,yesclouds,3,"749.8660953401178,500",
,,,,,,,de,de,de,x,22,,2021-08-02_22h55.53.864,online_experiment,2021.1.4,MacIntel,58.82352941,FALSE,,"Mozilla/5.0 (Macintosh; Intel Mac OS X 10_14_6) AppleWebKit/605.1.15 (KHTML, like Gecko) Version/14.1.1 Safari/605.1.15",1292,740,1440,900,,,,,,,,7,1.81,0.396666667,-0.428888889,1,0,0,next_trial_button,0,79,79,6,1,landscape,visiblesun,noclouds,0,"1413.8005159071367,500",
,,,,,,,de,de,de,x,22,,2021-08-02_22h55.53.864,online_experiment,2021.1.4,MacIntel,58.82352941,FALSE,,"Mozilla/5.0 (Macintosh; Intel Mac OS X 10_14_6) AppleWebKit/605.1.15 (KHTML, like Gecko) Version/14.1.1 Safari/605.1.15",1292,740,1440,900,,,,,,,,,,,,,,,,,,,,,,,,,"1413.8005159071367,500",252.064
