language_mouse.x,language_mouse.y,language_mouse.leftButton,language_mouse.midButton,language_mouse.rightButton,language_mouse.time,language_mouse.clicked_name,nationality,mother_tongue,homeland,gender,age,email,date,expName,psychopyVersion,OS,frameRate,cancel_experiment,cancel_reasons,client_agent_information,windowWidth,windowHeight,xRes,yRes,start_exp_mouse.x,start_exp_mouse.y,start_exp_mouse.leftButton,start_exp_mouse.midButton,start_exp_mouse.rightButton,start_exp_mouse.time,start_exp_mouse.clicked_name,rating_slider.response,rating_slider.rt,next_trial_mouse.x,next_trial_mouse.y,next_trial_mouse.leftButton,next_trial_mouse.midButton,next_trial_mouse.rightButton,next_trial_mouse.clicked_name,trials.thisRepN,trials.thisTrialN,trials.thisN,trials.thisIndex,trials.ran,environment,sunVisibility,cloudVisibility,imageId,imgSize,globalClockTime
-0.280555556,-0.253703704,1,0,0,4.511,de_flag,de,de,de,m,38,,2021-08-06_12h02.31.601,online_experiment,2021.1.4,Win32,29.9940012,FALSE,,Mozilla/5.0 (Windows NT 6.3; Win64; x64; rv:78.0) Gecko/20100101 Firefox/78.0,1920,958,1920,1080,,,,,,,,,,,,,,,,,,,,,,,,,,
,,,,,,,de,de,de,m,38,,2021-08-06_12h02.31.601,online_experiment,2021.1.4,Win32,29.9940012,FALSE,,Mozilla/5.0 (Windows NT 6.3; Win64; x64; rv:78.0) Gecko/20100101 Firefox/78.0,1920,958,1920,1080,-0.025,-0.449074074,1,0,0,187.981,start_button,3,3.321,0.382407407,-0.412962963,1,0,0,next_trial_button,0,0,0,67,1,beach,visiblesun,yesclouds,8,"748.1481481481482,500",
,,,,,,,de,de,de,m,38,,2021-08-06_12h02.31.601,online_experiment,2021.1.4,Win32,29.9940012,FALSE,,Mozilla/5.0 (Windows NT 6.3; Win64; x64; rv:78.0) Gecko/20100101 Firefox/78.0,1920,958,1920,1080,,,,,,,,9,6.51,0.335185185,-0.422222222,1,0,0,next_trial_button,0,1,1,16,1,beach,invisiblesun,noclouds,2,"752.8089887640449,500",
,,,,,,,de,de,de,m,38,,2021-08-06_12h02.31.601,online_experiment,2021.1.4,Win32,29.9940012,FALSE,,Mozilla/5.0 (Windows NT 6.3; Win64; x64; rv:78.0) Gecko/20100101 Firefox/78.0,1920,958,1920,1080,,,,,,,,1,5.186,0.401851852,-0.400925926,1,0,0,next_trial_button,0,2,2,19,1,beach,visiblesun,yesclouds,2,"770.1393095093882,500",
,,,,,,,de,de,de,m,38,,2021-08-06_12h02.31.601,online_experiment,2021.1.4,Win32,29.9940012,FALSE,,Mozilla/5.0 (Windows NT 6.3; Win64; x64; rv:78.0) Gecko/20100101 Firefox/78.0,1920,958,1920,1080,,,,,,,,4,6.358,0.402777778,-0.423148148,1,0,0,next_trial_button,0,3,3,25,1,beach,invisiblesun,yesclouds,3,"750.4690431519699,500",
,,,,,,,de,de,de,m,38,,2021-08-06_12h02.31.601,online_experiment,2021.1.4,Win32,29.9940012,FALSE,,Mozilla/5.0 (Windows NT 6.3; Win64; x64; rv:78.0) Gecko/20100101 Firefox/78.0,1920,958,1920,1080,,,,,,,,7,4.845,0.39537037,-0.423148148,1,0,0,next_trial_button,0,4,4,52,1,landscape,invisiblesun,noclouds,6,"666.6666666666666,500",
,,,,,,,de,de,de,m,38,,2021-08-06_12h02.31.601,online_experiment,2021.1.4,Win32,29.9940012,FALSE,,Mozilla/5.0 (Windows NT 6.3; Win64; x64; rv:78.0) Gecko/20100101 Firefox/78.0,1920,958,1920,1080,,,,,,,,1,5.916,0.45462963,-0.421296296,1,0,0,next_trial_button,0,5,5,27,1,beach,visiblesun,yesclouds,3,"752.8089887640449,500",
,,,,,,,de,de,de,m,38,,2021-08-06_12h02.31.601,online_experiment,2021.1.4,Win32,29.9940012,FALSE,,Mozilla/5.0 (Windows NT 6.3; Win64; x64; rv:78.0) Gecko/20100101 Firefox/78.0,1920,958,1920,1080,,,,,,,,3,5.12,0.393518519,-0.421296296,1,0,0,next_trial_button,0,6,6,66,1,beach,visiblesun,noclouds,8,"1028.5714285714284,500",
,,,,,,,de,de,de,m,38,,2021-08-06_12h02.31.601,online_experiment,2021.1.4,Win32,29.9940012,FALSE,,Mozilla/5.0 (Windows NT 6.3; Win64; x64; rv:78.0) Gecko/20100101 Firefox/78.0,1920,958,1920,1080,,,,,,,,4,10.5,0.385185185,-0.431481481,1,0,0,next_trial_button,0,7,7,63,1,landscape,visiblesun,yesclouds,7,"331.94444444444446,500",
,,,,,,,de,de,de,m,38,,2021-08-06_12h02.31.601,online_experiment,2021.1.4,Win32,29.9940012,FALSE,,Mozilla/5.0 (Windows NT 6.3; Win64; x64; rv:78.0) Gecko/20100101 Firefox/78.0,1920,958,1920,1080,,,,,,,,5,6.879,0.387962963,-0.406481481,1,0,0,next_trial_button,0,8,8,0,1,beach,invisiblesun,noclouds,0,"750,500",
,,,,,,,de,de,de,m,38,,2021-08-06_12h02.31.601,online_experiment,2021.1.4,Win32,29.9940012,FALSE,,Mozilla/5.0 (Windows NT 6.3; Win64; x64; rv:78.0) Gecko/20100101 Firefox/78.0,1920,958,1920,1080,,,,,,,,8,7.118,0.323148148,-0.411111111,1,0,0,next_trial_button,0,9,9,22,1,landscape,visiblesun,noclouds,2,"749.3333333333333,500",
,,,,,,,de,de,de,m,38,,2021-08-06_12h02.31.601,online_experiment,2021.1.4,Win32,29.9940012,FALSE,,Mozilla/5.0 (Windows NT 6.3; Win64; x64; rv:78.0) Gecko/20100101 Firefox/78.0,1920,958,1920,1080,,,,,,,,7,5.991,0.406481481,-0.40462963,1,0,0,next_trial_button,0,10,10,61,1,landscape,invisiblesun,yesclouds,7,"500,500",
,,,,,,,de,de,de,m,38,,2021-08-06_12h02.31.601,online_experiment,2021.1.4,Win32,29.9940012,FALSE,,Mozilla/5.0 (Windows NT 6.3; Win64; x64; rv:78.0) Gecko/20100101 Firefox/78.0,1920,958,1920,1080,,,,,,,,1,4.851,0.473148148,-0.425925926,1,0,0,next_trial_button,0,11,11,79,1,landscape,visiblesun,yesclouds,9,"1028.5714285714284,500",
,,,,,,,de,de,de,m,38,,2021-08-06_12h02.31.601,online_experiment,2021.1.4,Win32,29.9940012,FALSE,,Mozilla/5.0 (Windows NT 6.3; Win64; x64; rv:78.0) Gecko/20100101 Firefox/78.0,1920,958,1920,1080,,,,,,,,6,5.275,0.459259259,-0.383333333,1,0,0,next_trial_button,0,12,12,40,1,beach,invisiblesun,noclouds,5,"1028.5714285714284,500",
,,,,,,,de,de,de,m,38,,2021-08-06_12h02.31.601,online_experiment,2021.1.4,Win32,29.9940012,FALSE,,Mozilla/5.0 (Windows NT 6.3; Win64; x64; rv:78.0) Gecko/20100101 Firefox/78.0,1920,958,1920,1080,,,,,,,,8,3.107,0.346296296,-0.419444444,1,0,0,next_trial_button,0,13,13,41,1,beach,invisiblesun,yesclouds,5,"1248.4394506866417,500",
,,,,,,,de,de,de,m,38,,2021-08-06_12h02.31.601,online_experiment,2021.1.4,Win32,29.9940012,FALSE,,Mozilla/5.0 (Windows NT 6.3; Win64; x64; rv:78.0) Gecko/20100101 Firefox/78.0,1920,958,1920,1080,,,,,,,,3,4.519,0.356481481,-0.415740741,1,0,0,next_trial_button,0,14,14,33,1,beach,invisiblesun,yesclouds,4,"751.5473032714411,500",
,,,,,,,de,de,de,m,38,,2021-08-06_12h02.31.601,online_experiment,2021.1.4,Win32,29.9940012,FALSE,,Mozilla/5.0 (Windows NT 6.3; Win64; x64; rv:78.0) Gecko/20100101 Firefox/78.0,1920,958,1920,1080,,,,,,,,4,7.489,0.367592593,-0.417592593,1,0,0,next_trial_button,0,15,15,3,1,beach,visiblesun,yesclouds,0,"1152.5122276567363,500",
,,,,,,,de,de,de,m,38,,2021-08-06_12h02.31.601,online_experiment,2021.1.4,Win32,29.9940012,FALSE,,Mozilla/5.0 (Windows NT 6.3; Win64; x64; rv:78.0) Gecko/20100101 Firefox/78.0,1920,958,1920,1080,,,,,,,,4,3.092,0.39537037,-0.40462963,1,0,0,next_trial_button,0,16,16,26,1,beach,visiblesun,noclouds,3,"888.8888888888888,500",
,,,,,,,de,de,de,m,38,,2021-08-06_12h02.31.601,online_experiment,2021.1.4,Win32,29.9940012,FALSE,,Mozilla/5.0 (Windows NT 6.3; Win64; x64; rv:78.0) Gecko/20100101 Firefox/78.0,1920,958,1920,1080,,,,,,,,5,7.482,0.375925926,-0.416666667,1,0,0,next_trial_button,0,17,17,15,1,landscape,visiblesun,yesclouds,1,"333.3333333333333,500",
,,,,,,,de,de,de,m,38,,2021-08-06_12h02.31.601,online_experiment,2021.1.4,Win32,29.9940012,FALSE,,Mozilla/5.0 (Windows NT 6.3; Win64; x64; rv:78.0) Gecko/20100101 Firefox/78.0,1920,958,1920,1080,,,,,,,,8,2.645,0.355555556,-0.426851852,1,0,0,next_trial_button,0,18,18,45,1,landscape,invisiblesun,yesclouds,5,"749.6251874062968,500",
,,,,,,,de,de,de,m,38,,2021-08-06_12h02.31.601,online_experiment,2021.1.4,Win32,29.9940012,FALSE,,Mozilla/5.0 (Windows NT 6.3; Win64; x64; rv:78.0) Gecko/20100101 Firefox/78.0,1920,958,1920,1080,,,,,,,,2,3.193,0.444444444,-0.39537037,1,0,0,next_trial_button,0,19,19,7,1,landscape,visiblesun,yesclouds,0,"743.421052631579,500",
,,,,,,,de,de,de,m,38,,2021-08-06_12h02.31.601,online_experiment,2021.1.4,Win32,29.9940012,FALSE,,Mozilla/5.0 (Windows NT 6.3; Win64; x64; rv:78.0) Gecko/20100101 Firefox/78.0,1920,958,1920,1080,,,,,,,,1,2.818,0.35462963,-0.421296296,1,0,0,next_trial_button,0,20,20,8,1,beach,invisiblesun,noclouds,1,"1215.1898734177216,500",
,,,,,,,de,de,de,m,38,,2021-08-06_12h02.31.601,online_experiment,2021.1.4,Win32,29.9940012,FALSE,,Mozilla/5.0 (Windows NT 6.3; Win64; x64; rv:78.0) Gecko/20100101 Firefox/78.0,1920,958,1920,1080,,,,,,,,1,2.818,0.372222222,-0.412962963,1,0,0,next_trial_button,0,21,21,9,1,beach,invisiblesun,yesclouds,1,"750,500",
,,,,,,,de,de,de,m,38,,2021-08-06_12h02.31.601,online_experiment,2021.1.4,Win32,29.9940012,FALSE,,Mozilla/5.0 (Windows NT 6.3; Win64; x64; rv:78.0) Gecko/20100101 Firefox/78.0,1920,958,1920,1080,,,,,,,,1,3.528,0.427777778,-0.431481481,1,0,0,next_trial_button,0,22,22,62,1,landscape,visiblesun,noclouds,7,"417.42389822807814,500",
,,,,,,,de,de,de,m,38,,2021-08-06_12h02.31.601,online_experiment,2021.1.4,Win32,29.9940012,FALSE,,Mozilla/5.0 (Windows NT 6.3; Win64; x64; rv:78.0) Gecko/20100101 Firefox/78.0,1920,958,1920,1080,,,,,,,,1,3.386,0.434259259,-0.414814815,1,0,0,next_trial_button,0,23,23,60,1,landscape,invisiblesun,noclouds,7,"666.7268134247564,500",
,,,,,,,de,de,de,m,38,,2021-08-06_12h02.31.601,online_experiment,2021.1.4,Win32,29.9940012,FALSE,,Mozilla/5.0 (Windows NT 6.3; Win64; x64; rv:78.0) Gecko/20100101 Firefox/78.0,1920,958,1920,1080,,,,,,,,2,9.268,0.375925926,-0.409259259,1,0,0,next_trial_button,0,24,24,24,1,beach,invisiblesun,noclouds,3,"750.089190153407,500",
,,,,,,,de,de,de,m,38,,2021-08-06_12h02.31.601,online_experiment,2021.1.4,Win32,29.9940012,FALSE,,Mozilla/5.0 (Windows NT 6.3; Win64; x64; rv:78.0) Gecko/20100101 Firefox/78.0,1920,958,1920,1080,,,,,,,,2,4.834,0.467592593,-0.427777778,1,0,0,next_trial_button,0,25,25,69,1,landscape,invisiblesun,yesclouds,8,"750,500",
,,,,,,,de,de,de,m,38,,2021-08-06_12h02.31.601,online_experiment,2021.1.4,Win32,29.9940012,FALSE,,Mozilla/5.0 (Windows NT 6.3; Win64; x64; rv:78.0) Gecko/20100101 Firefox/78.0,1920,958,1920,1080,,,,,,,,2,2.923,0.356481481,-0.415740741,1,0,0,next_trial_button,0,26,26,21,1,landscape,invisiblesun,yesclouds,2,"750,500",
,,,,,,,de,de,de,m,38,,2021-08-06_12h02.31.601,online_experiment,2021.1.4,Win32,29.9940012,FALSE,,Mozilla/5.0 (Windows NT 6.3; Win64; x64; rv:78.0) Gecko/20100101 Firefox/78.0,1920,958,1920,1080,,,,,,,,8,7.299,0.34537037,-0.418518519,1,0,0,next_trial_button,0,27,27,53,1,landscape,invisiblesun,yesclouds,6,"750.0695023630803,500",
,,,,,,,de,de,de,m,38,,2021-08-06_12h02.31.601,online_experiment,2021.1.4,Win32,29.9940012,FALSE,,Mozilla/5.0 (Windows NT 6.3; Win64; x64; rv:78.0) Gecko/20100101 Firefox/78.0,1920,958,1920,1080,,,,,,,,1,2.441,0.464814815,-0.413888889,1,0,0,next_trial_button,0,28,28,30,1,landscape,visiblesun,noclouds,3,"346.3035019455253,500",
,,,,,,,de,de,de,m,38,,2021-08-06_12h02.31.601,online_experiment,2021.1.4,Win32,29.9940012,FALSE,,Mozilla/5.0 (Windows NT 6.3; Win64; x64; rv:78.0) Gecko/20100101 Firefox/78.0,1920,958,1920,1080,,,,,,,,3,3.074,0.373148148,-0.400925926,1,0,0,next_trial_button,0,29,29,5,1,landscape,invisiblesun,yesclouds,0,"750.4690431519699,500",
,,,,,,,de,de,de,m,38,,2021-08-06_12h02.31.601,online_experiment,2021.1.4,Win32,29.9940012,FALSE,,Mozilla/5.0 (Windows NT 6.3; Win64; x64; rv:78.0) Gecko/20100101 Firefox/78.0,1920,958,1920,1080,,,,,,,,2,2.725,0.377777778,-0.414814815,1,0,0,next_trial_button,0,30,30,13,1,landscape,invisiblesun,yesclouds,1,"783.1192660550458,500",
,,,,,,,de,de,de,m,38,,2021-08-06_12h02.31.601,online_experiment,2021.1.4,Win32,29.9940012,FALSE,,Mozilla/5.0 (Windows NT 6.3; Win64; x64; rv:78.0) Gecko/20100101 Firefox/78.0,1920,958,1920,1080,,,,,,,,4,8.689,0.380555556,-0.431481481,1,0,0,next_trial_button,0,31,31,64,1,beach,invisiblesun,noclouds,8,"1028.5714285714284,500",
,,,,,,,de,de,de,m,38,,2021-08-06_12h02.31.601,online_experiment,2021.1.4,Win32,29.9940012,FALSE,,Mozilla/5.0 (Windows NT 6.3; Win64; x64; rv:78.0) Gecko/20100101 Firefox/78.0,1920,958,1920,1080,,,,,,,,4,5.55,0.375925926,-0.403703704,1,0,0,next_trial_button,0,32,32,32,1,beach,invisiblesun,noclouds,4,"750,500",
,,,,,,,de,de,de,m,38,,2021-08-06_12h02.31.601,online_experiment,2021.1.4,Win32,29.9940012,FALSE,,Mozilla/5.0 (Windows NT 6.3; Win64; x64; rv:78.0) Gecko/20100101 Firefox/78.0,1920,958,1920,1080,,,,,,,,5,4.547,0.360185185,-0.399074074,1,0,0,next_trial_button,0,33,33,42,1,beach,visiblesun,noclouds,5,"834.4594594594595,500",
,,,,,,,de,de,de,m,38,,2021-08-06_12h02.31.601,online_experiment,2021.1.4,Win32,29.9940012,FALSE,,Mozilla/5.0 (Windows NT 6.3; Win64; x64; rv:78.0) Gecko/20100101 Firefox/78.0,1920,958,1920,1080,,,,,,,,3,3.355,0.35,-0.394444444,1,0,0,next_trial_button,0,34,34,44,1,landscape,invisiblesun,noclouds,5,"666.6666666666666,500",
,,,,,,,de,de,de,m,38,,2021-08-06_12h02.31.601,online_experiment,2021.1.4,Win32,29.9940012,FALSE,,Mozilla/5.0 (Windows NT 6.3; Win64; x64; rv:78.0) Gecko/20100101 Firefox/78.0,1920,958,1920,1080,,,,,,,,5,7.376,0.323148148,-0.408333333,1,0,0,next_trial_button,0,35,35,73,1,beach,invisiblesun,yesclouds,9,"1028.5714285714284,500",
,,,,,,,de,de,de,m,38,,2021-08-06_12h02.31.601,online_experiment,2021.1.4,Win32,29.9940012,FALSE,,Mozilla/5.0 (Windows NT 6.3; Win64; x64; rv:78.0) Gecko/20100101 Firefox/78.0,1920,958,1920,1080,,,,,,,,7,5.614,0.382407407,-0.412962963,1,0,0,next_trial_button,0,36,36,11,1,beach,visiblesun,yesclouds,1,"989.8132427843803,500",
,,,,,,,de,de,de,m,38,,2021-08-06_12h02.31.601,online_experiment,2021.1.4,Win32,29.9940012,FALSE,,Mozilla/5.0 (Windows NT 6.3; Win64; x64; rv:78.0) Gecko/20100101 Firefox/78.0,1920,958,1920,1080,,,,,,,,10,3.834,0.344444444,-0.422222222,1,0,0,next_trial_button,0,37,37,37,1,landscape,invisiblesun,yesclouds,4,"669.4214876033058,500",
,,,,,,,de,de,de,m,38,,2021-08-06_12h02.31.601,online_experiment,2021.1.4,Win32,29.9940012,FALSE,,Mozilla/5.0 (Windows NT 6.3; Win64; x64; rv:78.0) Gecko/20100101 Firefox/78.0,1920,958,1920,1080,,,,,,,,1,3.133,0.346296296,-0.401851852,1,0,0,next_trial_button,0,38,38,38,1,landscape,visiblesun,noclouds,4,"733.3333333333333,500",
,,,,,,,de,de,de,m,38,,2021-08-06_12h02.31.601,online_experiment,2021.1.4,Win32,29.9940012,FALSE,,Mozilla/5.0 (Windows NT 6.3; Win64; x64; rv:78.0) Gecko/20100101 Firefox/78.0,1920,958,1920,1080,,,,,,,,5,7.553,0.366666667,-0.407407407,1,0,0,next_trial_button,0,39,39,72,1,beach,invisiblesun,noclouds,9,"888.8888888888888,500",
,,,,,,,de,de,de,m,38,,2021-08-06_12h02.31.601,online_experiment,2021.1.4,Win32,29.9940012,FALSE,,Mozilla/5.0 (Windows NT 6.3; Win64; x64; rv:78.0) Gecko/20100101 Firefox/78.0,1920,958,1920,1080,,,,,,,,4,3.417,0.344444444,-0.396296296,1,0,0,next_trial_button,0,40,40,59,1,beach,visiblesun,yesclouds,7,"888.9689978370584,500",
,,,,,,,de,de,de,m,38,,2021-08-06_12h02.31.601,online_experiment,2021.1.4,Win32,29.9940012,FALSE,,Mozilla/5.0 (Windows NT 6.3; Win64; x64; rv:78.0) Gecko/20100101 Firefox/78.0,1920,958,1920,1080,,,,,,,,1,4.139,0.451851852,-0.392592593,1,0,0,next_trial_button,0,41,41,36,1,landscape,invisiblesun,noclouds,4,"281.25,500",
,,,,,,,de,de,de,m,38,,2021-08-06_12h02.31.601,online_experiment,2021.1.4,Win32,29.9940012,FALSE,,Mozilla/5.0 (Windows NT 6.3; Win64; x64; rv:78.0) Gecko/20100101 Firefox/78.0,1920,958,1920,1080,,,,,,,,1,2.112,0.348148148,-0.400925926,1,0,0,next_trial_button,0,42,42,39,1,landscape,visiblesun,yesclouds,4,"749.7656982193065,500",
,,,,,,,de,de,de,m,38,,2021-08-06_12h02.31.601,online_experiment,2021.1.4,Win32,29.9940012,FALSE,,Mozilla/5.0 (Windows NT 6.3; Win64; x64; rv:78.0) Gecko/20100101 Firefox/78.0,1920,958,1920,1080,,,,,,,,1,2.128,0.383333333,-0.416666667,1,0,0,next_trial_button,0,43,43,75,1,beach,visiblesun,yesclouds,9,"1029.6010296010297,500",
,,,,,,,de,de,de,m,38,,2021-08-06_12h02.31.601,online_experiment,2021.1.4,Win32,29.9940012,FALSE,,Mozilla/5.0 (Windows NT 6.3; Win64; x64; rv:78.0) Gecko/20100101 Firefox/78.0,1920,958,1920,1080,,,,,,,,1,2.108,0.4,-0.398148148,1,0,0,next_trial_button,0,44,44,23,1,landscape,visiblesun,yesclouds,2,"767.97829036635,500",
,,,,,,,de,de,de,m,38,,2021-08-06_12h02.31.601,online_experiment,2021.1.4,Win32,29.9940012,FALSE,,Mozilla/5.0 (Windows NT 6.3; Win64; x64; rv:78.0) Gecko/20100101 Firefox/78.0,1920,958,1920,1080,,,,,,,,2,3.163,0.362962963,-0.396296296,1,0,0,next_trial_button,0,45,45,46,1,landscape,visiblesun,noclouds,5,"750,500",
,,,,,,,de,de,de,m,38,,2021-08-06_12h02.31.601,online_experiment,2021.1.4,Win32,29.9940012,FALSE,,Mozilla/5.0 (Windows NT 6.3; Win64; x64; rv:78.0) Gecko/20100101 Firefox/78.0,1920,958,1920,1080,,,,,,,,1,4.062,0.364814815,-0.425,1,0,0,next_trial_button,0,46,46,76,1,landscape,invisiblesun,noclouds,9,"1056.6037735849056,500",
,,,,,,,de,de,de,m,38,,2021-08-06_12h02.31.601,online_experiment,2021.1.4,Win32,29.9940012,FALSE,,Mozilla/5.0 (Windows NT 6.3; Win64; x64; rv:78.0) Gecko/20100101 Firefox/78.0,1920,958,1920,1080,,,,,,,,1,2.271,0.385185185,-0.435185185,1,0,0,next_trial_button,0,47,47,50,1,beach,visiblesun,noclouds,6,"666.6666666666666,500",
,,,,,,,de,de,de,m,38,,2021-08-06_12h02.31.601,online_experiment,2021.1.4,Win32,29.9940012,FALSE,,Mozilla/5.0 (Windows NT 6.3; Win64; x64; rv:78.0) Gecko/20100101 Firefox/78.0,1920,958,1920,1080,,,,,,,,2,3.21,0.456481481,-0.400925926,1,0,0,next_trial_button,0,48,48,10,1,beach,visiblesun,noclouds,1,"747.0261697065821,500",
,,,,,,,de,de,de,m,38,,2021-08-06_12h02.31.601,online_experiment,2021.1.4,Win32,29.9940012,FALSE,,Mozilla/5.0 (Windows NT 6.3; Win64; x64; rv:78.0) Gecko/20100101 Firefox/78.0,1920,958,1920,1080,,,,,,,,6,4.048,0.355555556,-0.42962963,1,0,0,next_trial_button,0,49,49,1,1,beach,invisiblesun,yesclouds,0,"666.6666666666666,500",
,,,,,,,de,de,de,m,38,,2021-08-06_12h02.31.601,online_experiment,2021.1.4,Win32,29.9940012,FALSE,,Mozilla/5.0 (Windows NT 6.3; Win64; x64; rv:78.0) Gecko/20100101 Firefox/78.0,1920,958,1920,1080,,,,,,,,7,2.956,0.382407407,-0.438888889,1,0,0,next_trial_button,0,50,50,4,1,landscape,invisiblesun,noclouds,0,"1276.9171185127807,500",
,,,,,,,de,de,de,m,38,,2021-08-06_12h02.31.601,online_experiment,2021.1.4,Win32,29.9940012,FALSE,,Mozilla/5.0 (Windows NT 6.3; Win64; x64; rv:78.0) Gecko/20100101 Firefox/78.0,1920,958,1920,1080,,,,,,,,3,8.323,0.409259259,-0.424074074,1,0,0,next_trial_button,0,51,51,17,1,beach,invisiblesun,yesclouds,2,"684.8635235732011,500",
,,,,,,,de,de,de,m,38,,2021-08-06_12h02.31.601,online_experiment,2021.1.4,Win32,29.9940012,FALSE,,Mozilla/5.0 (Windows NT 6.3; Win64; x64; rv:78.0) Gecko/20100101 Firefox/78.0,1920,958,1920,1080,,,,,,,,1,2.739,0.378703704,-0.394444444,1,0,0,next_trial_button,0,52,52,70,1,landscape,visiblesun,noclouds,8,"666.6666666666666,500",
,,,,,,,de,de,de,m,38,,2021-08-06_12h02.31.601,online_experiment,2021.1.4,Win32,29.9940012,FALSE,,Mozilla/5.0 (Windows NT 6.3; Win64; x64; rv:78.0) Gecko/20100101 Firefox/78.0,1920,958,1920,1080,,,,,,,,7,5.584,0.391666667,-0.402777778,1,0,0,next_trial_button,0,53,53,34,1,beach,visiblesun,noclouds,4,"749.6251874062968,500",
,,,,,,,de,de,de,m,38,,2021-08-06_12h02.31.601,online_experiment,2021.1.4,Win32,29.9940012,FALSE,,Mozilla/5.0 (Windows NT 6.3; Win64; x64; rv:78.0) Gecko/20100101 Firefox/78.0,1920,958,1920,1080,,,,,,,,2,8.46,0.378703704,-0.413888889,1,0,0,next_trial_button,0,54,54,71,1,landscape,visiblesun,yesclouds,8,"666.6666666666666,500",
,,,,,,,de,de,de,m,38,,2021-08-06_12h02.31.601,online_experiment,2021.1.4,Win32,29.9940012,FALSE,,Mozilla/5.0 (Windows NT 6.3; Win64; x64; rv:78.0) Gecko/20100101 Firefox/78.0,1920,958,1920,1080,,,,,,,,1,4.621,0.367592593,-0.421296296,1,0,0,next_trial_button,0,55,55,55,1,landscape,visiblesun,yesclouds,6,"749.8819083608881,500",
,,,,,,,de,de,de,m,38,,2021-08-06_12h02.31.601,online_experiment,2021.1.4,Win32,29.9940012,FALSE,,Mozilla/5.0 (Windows NT 6.3; Win64; x64; rv:78.0) Gecko/20100101 Firefox/78.0,1920,958,1920,1080,,,,,,,,1,2.453,0.34537037,-0.421296296,1,0,0,next_trial_button,0,56,56,56,1,beach,invisiblesun,noclouds,7,"1028.5714285714284,500",
,,,,,,,de,de,de,m,38,,2021-08-06_12h02.31.601,online_experiment,2021.1.4,Win32,29.9940012,FALSE,,Mozilla/5.0 (Windows NT 6.3; Win64; x64; rv:78.0) Gecko/20100101 Firefox/78.0,1920,958,1920,1080,,,,,,,,1,2.335,0.400925926,-0.430555556,1,0,0,next_trial_button,0,57,57,31,1,landscape,visiblesun,yesclouds,3,"638.0622837370242,500",
,,,,,,,de,de,de,m,38,,2021-08-06_12h02.31.601,online_experiment,2021.1.4,Win32,29.9940012,FALSE,,Mozilla/5.0 (Windows NT 6.3; Win64; x64; rv:78.0) Gecko/20100101 Firefox/78.0,1920,958,1920,1080,,,,,,,,2,2.779,0.426851852,-0.418518519,1,0,0,next_trial_button,0,58,58,54,1,landscape,visiblesun,noclouds,6,"695.0043821209465,500",
,,,,,,,de,de,de,m,38,,2021-08-06_12h02.31.601,online_experiment,2021.1.4,Win32,29.9940012,FALSE,,Mozilla/5.0 (Windows NT 6.3; Win64; x64; rv:78.0) Gecko/20100101 Firefox/78.0,1920,958,1920,1080,,,,,,,,1,2.721,0.37037037,-0.42037037,1,0,0,next_trial_button,0,59,59,74,1,beach,visiblesun,noclouds,9,"1028.5714285714284,500",
,,,,,,,de,de,de,m,38,,2021-08-06_12h02.31.601,online_experiment,2021.1.4,Win32,29.9940012,FALSE,,Mozilla/5.0 (Windows NT 6.3; Win64; x64; rv:78.0) Gecko/20100101 Firefox/78.0,1920,958,1920,1080,,,,,,,,4,4.383,0.468518519,-0.401851852,1,0,0,next_trial_button,0,60,60,49,1,beach,invisiblesun,yesclouds,6,"858.4474885844749,500",
,,,,,,,de,de,de,m,38,,2021-08-06_12h02.31.601,online_experiment,2021.1.4,Win32,29.9940012,FALSE,,Mozilla/5.0 (Windows NT 6.3; Win64; x64; rv:78.0) Gecko/20100101 Firefox/78.0,1920,958,1920,1080,,,,,,,,3,3.9,0.362962963,-0.412962963,1,0,0,next_trial_button,0,61,61,43,1,beach,visiblesun,yesclouds,5,"750,500",
,,,,,,,de,de,de,m,38,,2021-08-06_12h02.31.601,online_experiment,2021.1.4,Win32,29.9940012,FALSE,,Mozilla/5.0 (Windows NT 6.3; Win64; x64; rv:78.0) Gecko/20100101 Firefox/78.0,1920,958,1920,1080,,,,,,,,1,1.794,0.450925926,-0.4,1,0,0,next_trial_button,0,62,62,51,1,beach,visiblesun,yesclouds,6,"657.1279916753382,500",
,,,,,,,de,de,de,m,38,,2021-08-06_12h02.31.601,online_experiment,2021.1.4,Win32,29.9940012,FALSE,,Mozilla/5.0 (Windows NT 6.3; Win64; x64; rv:78.0) Gecko/20100101 Firefox/78.0,1920,958,1920,1080,,,,,,,,1,2.254,0.35462963,-0.413888889,1,0,0,next_trial_button,0,63,63,68,1,landscape,invisiblesun,noclouds,8,"666.6666666666666,500",
,,,,,,,de,de,de,m,38,,2021-08-06_12h02.31.601,online_experiment,2021.1.4,Win32,29.9940012,FALSE,,Mozilla/5.0 (Windows NT 6.3; Win64; x64; rv:78.0) Gecko/20100101 Firefox/78.0,1920,958,1920,1080,,,,,,,,3,9.094,0.375925926,-0.42037037,1,0,0,next_trial_button,0,64,64,65,1,beach,invisiblesun,yesclouds,8,"750,500",
,,,,,,,de,de,de,m,38,,2021-08-06_12h02.31.601,online_experiment,2021.1.4,Win32,29.9940012,FALSE,,Mozilla/5.0 (Windows NT 6.3; Win64; x64; rv:78.0) Gecko/20100101 Firefox/78.0,1920,958,1920,1080,,,,,,,,1,2.994,0.447222222,-0.398148148,1,0,0,next_trial_button,0,65,65,18,1,beach,visiblesun,noclouds,2,"666.6666666666666,500",
,,,,,,,de,de,de,m,38,,2021-08-06_12h02.31.601,online_experiment,2021.1.4,Win32,29.9940012,FALSE,,Mozilla/5.0 (Windows NT 6.3; Win64; x64; rv:78.0) Gecko/20100101 Firefox/78.0,1920,958,1920,1080,,,,,,,,2,3.508,0.446296296,-0.42037037,1,0,0,next_trial_button,0,66,66,58,1,beach,visiblesun,noclouds,7,"1028.5714285714284,500",
,,,,,,,de,de,de,m,38,,2021-08-06_12h02.31.601,online_experiment,2021.1.4,Win32,29.9940012,FALSE,,Mozilla/5.0 (Windows NT 6.3; Win64; x64; rv:78.0) Gecko/20100101 Firefox/78.0,1920,958,1920,1080,,,,,,,,1,3.128,0.384259259,-0.410185185,1,0,0,next_trial_button,0,67,67,77,1,landscape,invisiblesun,yesclouds,9,"888.8888888888888,500",
,,,,,,,de,de,de,m,38,,2021-08-06_12h02.31.601,online_experiment,2021.1.4,Win32,29.9940012,FALSE,,Mozilla/5.0 (Windows NT 6.3; Win64; x64; rv:78.0) Gecko/20100101 Firefox/78.0,1920,958,1920,1080,,,,,,,,1,5.398,0.436111111,-0.448148148,1,0,0,next_trial_button,0,68,68,6,1,landscape,visiblesun,noclouds,0,"1413.8005159071367,500",
,,,,,,,de,de,de,m,38,,2021-08-06_12h02.31.601,online_experiment,2021.1.4,Win32,29.9940012,FALSE,,Mozilla/5.0 (Windows NT 6.3; Win64; x64; rv:78.0) Gecko/20100101 Firefox/78.0,1920,958,1920,1080,,,,,,,,1,2.517,0.371296296,-0.415740741,1,0,0,next_trial_button,0,69,69,28,1,landscape,invisiblesun,noclouds,3,"888.8888888888888,500",
,,,,,,,de,de,de,m,38,,2021-08-06_12h02.31.601,online_experiment,2021.1.4,Win32,29.9940012,FALSE,,Mozilla/5.0 (Windows NT 6.3; Win64; x64; rv:78.0) Gecko/20100101 Firefox/78.0,1920,958,1920,1080,,,,,,,,5,3.017,0.382407407,-0.40462963,1,0,0,next_trial_button,0,70,70,35,1,beach,visiblesun,yesclouds,4,"750,500",
,,,,,,,de,de,de,m,38,,2021-08-06_12h02.31.601,online_experiment,2021.1.4,Win32,29.9940012,FALSE,,Mozilla/5.0 (Windows NT 6.3; Win64; x64; rv:78.0) Gecko/20100101 Firefox/78.0,1920,958,1920,1080,,,,,,,,1,3.133,0.399074074,-0.408333333,1,0,0,next_trial_button,0,71,71,47,1,landscape,visiblesun,yesclouds,5,"666.6666666666666,500",
,,,,,,,de,de,de,m,38,,2021-08-06_12h02.31.601,online_experiment,2021.1.4,Win32,29.9940012,FALSE,,Mozilla/5.0 (Windows NT 6.3; Win64; x64; rv:78.0) Gecko/20100101 Firefox/78.0,1920,958,1920,1080,,,,,,,,1,2.645,0.37962963,-0.415740741,1,0,0,next_trial_button,0,72,72,12,1,landscape,invisiblesun,noclouds,1,"666.6666666666666,500",
,,,,,,,de,de,de,m,38,,2021-08-06_12h02.31.601,online_experiment,2021.1.4,Win32,29.9940012,FALSE,,Mozilla/5.0 (Windows NT 6.3; Win64; x64; rv:78.0) Gecko/20100101 Firefox/78.0,1920,958,1920,1080,,,,,,,,1,2.465,0.411111111,-0.431481481,1,0,0,next_trial_button,0,73,73,2,1,beach,visiblesun,noclouds,0,"375,500",
,,,,,,,de,de,de,m,38,,2021-08-06_12h02.31.601,online_experiment,2021.1.4,Win32,29.9940012,FALSE,,Mozilla/5.0 (Windows NT 6.3; Win64; x64; rv:78.0) Gecko/20100101 Firefox/78.0,1920,958,1920,1080,,,,,,,,6,6.684,0.373148148,-0.417592593,1,0,0,next_trial_button,0,74,74,48,1,beach,invisiblesun,noclouds,6,"1028.5714285714284,500",
,,,,,,,de,de,de,m,38,,2021-08-06_12h02.31.601,online_experiment,2021.1.4,Win32,29.9940012,FALSE,,Mozilla/5.0 (Windows NT 6.3; Win64; x64; rv:78.0) Gecko/20100101 Firefox/78.0,1920,958,1920,1080,,,,,,,,2,10.58,0.45462963,-0.422222222,1,0,0,next_trial_button,0,75,75,29,1,landscape,invisiblesun,yesclouds,3,"749.8660953401178,500",
,,,,,,,de,de,de,m,38,,2021-08-06_12h02.31.601,online_experiment,2021.1.4,Win32,29.9940012,FALSE,,Mozilla/5.0 (Windows NT 6.3; Win64; x64; rv:78.0) Gecko/20100101 Firefox/78.0,1920,958,1920,1080,,,,,,,,1,4.706,0.455555556,-0.406481481,1,0,0,next_trial_button,0,76,76,57,1,beach,invisiblesun,yesclouds,7,"749.707488299532,500",
,,,,,,,de,de,de,m,38,,2021-08-06_12h02.31.601,online_experiment,2021.1.4,Win32,29.9940012,FALSE,,Mozilla/5.0 (Windows NT 6.3; Win64; x64; rv:78.0) Gecko/20100101 Firefox/78.0,1920,958,1920,1080,,,,,,,,3,6.256,0.378703704,-0.402777778,1,0,0,next_trial_button,0,77,77,20,1,landscape,invisiblesun,noclouds,2,"755.192878338279,500",
,,,,,,,de,de,de,m,38,,2021-08-06_12h02.31.601,online_experiment,2021.1.4,Win32,29.9940012,FALSE,,Mozilla/5.0 (Windows NT 6.3; Win64; x64; rv:78.0) Gecko/20100101 Firefox/78.0,1920,958,1920,1080,,,,,,,,1,2.032,0.390740741,-0.42962963,1,0,0,next_trial_button,0,78,78,14,1,landscape,visiblesun,noclouds,1,"745.9919839679359,500",
,,,,,,,de,de,de,m,38,,2021-08-06_12h02.31.601,online_experiment,2021.1.4,Win32,29.9940012,FALSE,,Mozilla/5.0 (Windows NT 6.3; Win64; x64; rv:78.0) Gecko/20100101 Firefox/78.0,1920,958,1920,1080,,,,,,,,1,2.283,0.426851852,-0.409259259,1,0,0,next_trial_button,0,79,79,78,1,landscape,visiblesun,noclouds,9,"666.6666666666666,500",
,,,,,,,de,de,de,m,38,,2021-08-06_12h02.31.601,online_experiment,2021.1.4,Win32,29.9940012,FALSE,,Mozilla/5.0 (Windows NT 6.3; Win64; x64; rv:78.0) Gecko/20100101 Firefox/78.0,1920,958,1920,1080,,,,,,,,,,,,,,,,,,,,,,,,,"666.6666666666666,500",671.796
