language_mouse.x,language_mouse.y,language_mouse.leftButton,language_mouse.midButton,language_mouse.rightButton,language_mouse.time,language_mouse.clicked_name,nationality,mother_tongue,homeland,gender,age,email,date,expName,psychopyVersion,OS,frameRate,cancel_experiment,cancel_reasons,client_agent_information,windowWidth,windowHeight,xRes,yRes,start_exp_mouse.x,start_exp_mouse.y,start_exp_mouse.leftButton,start_exp_mouse.midButton,start_exp_mouse.rightButton,start_exp_mouse.time,start_exp_mouse.clicked_name,rating_slider.response,rating_slider.rt,next_trial_mouse.x,next_trial_mouse.y,next_trial_mouse.leftButton,next_trial_mouse.midButton,next_trial_mouse.rightButton,next_trial_mouse.clicked_name,trials.thisRepN,trials.thisTrialN,trials.thisN,trials.thisIndex,trials.ran,environment,sunVisibility,cloudVisibility,imageId,imgSize,globalClockTime
-0.312692588,-0.220049449,1,0,0,2.2162,de_flag,de,de,de,m,43,,2021-08-05_16h52.48.271,online_experiment,2021.1.4,MacIntel,60.0024001,FALSE,,"Mozilla/5.0 (Macintosh; Intel Mac OS X 10_15_7) AppleWebKit/537.36 (KHTML, like Gecko) Chrome/92.0.4515.131 Safari/537.36",1792,984,1792,1120,,,,,,,,,,,,,,,,,,,,,,,,,,
,,,,,,,de,de,de,m,43,,2021-08-05_16h52.48.271,online_experiment,2021.1.4,MacIntel,60.0024001,FALSE,,"Mozilla/5.0 (Macintosh; Intel Mac OS X 10_15_7) AppleWebKit/537.36 (KHTML, like Gecko) Chrome/92.0.4515.131 Safari/537.36",1792,984,1792,1120,0.037577166,-0.389805058,1,0,0,9.1349,cont_gr,3,8.7836,0.370332554,-0.392301559,1,0,0,next_trial_button,0,0,0,59,1,beach,visiblesun,yesclouds,7,"888.9689978370584,500",
,,,,,,,de,de,de,m,43,,2021-08-05_16h52.48.271,online_experiment,2021.1.4,MacIntel,60.0024001,FALSE,,"Mozilla/5.0 (Macintosh; Intel Mac OS X 10_15_7) AppleWebKit/537.36 (KHTML, like Gecko) Chrome/92.0.4515.131 Safari/537.36",1792,984,1792,1120,,,,,,,,4,7.193,0.466144235,-0.410609872,1,0,0,next_trial_button,0,1,1,35,1,beach,visiblesun,yesclouds,4,"750,500",
,,,,,,,de,de,de,m,43,,2021-08-05_16h52.48.271,online_experiment,2021.1.4,MacIntel,60.0024001,FALSE,,"Mozilla/5.0 (Macintosh; Intel Mac OS X 10_15_7) AppleWebKit/537.36 (KHTML, like Gecko) Chrome/92.0.4515.131 Safari/537.36",1792,984,1792,1120,,,,,,,,2,4.5099,0.413819885,-0.415549251,1,0,0,next_trial_button,0,2,2,72,1,beach,invisiblesun,noclouds,9,"888.8888888888888,500",
,,,,,,,de,de,de,m,43,,2021-08-05_16h52.48.271,online_experiment,2021.1.4,MacIntel,60.0024001,FALSE,,"Mozilla/5.0 (Macintosh; Intel Mac OS X 10_15_7) AppleWebKit/537.36 (KHTML, like Gecko) Chrome/92.0.4515.131 Safari/537.36",1792,984,1792,1120,,,,,,,,1,4.993,0.369938878,-0.408904321,1,0,0,next_trial_button,0,3,3,12,1,landscape,invisiblesun,noclouds,1,"666.6666666666666,500",
,,,,,,,de,de,de,m,43,,2021-08-05_16h52.48.271,online_experiment,2021.1.4,MacIntel,60.0024001,FALSE,,"Mozilla/5.0 (Macintosh; Intel Mac OS X 10_15_7) AppleWebKit/537.36 (KHTML, like Gecko) Chrome/92.0.4515.131 Safari/537.36",1792,984,1792,1120,,,,,,,,2,4.2585,0.38676954,-0.401724134,1,0,0,next_trial_button,0,4,4,36,1,landscape,invisiblesun,noclouds,4,"281.25,500",
,,,,,,,de,de,de,m,43,,2021-08-05_16h52.48.271,online_experiment,2021.1.4,MacIntel,60.0024001,FALSE,,"Mozilla/5.0 (Macintosh; Intel Mac OS X 10_15_7) AppleWebKit/537.36 (KHTML, like Gecko) Chrome/92.0.4515.131 Safari/537.36",1792,984,1792,1120,,,,,,,,6,3.1771,0.391214425,-0.411547797,1,0,0,next_trial_button,0,5,5,64,1,beach,invisiblesun,noclouds,8,"1028.5714285714284,500",
,,,,,,,de,de,de,m,43,,2021-08-05_16h52.48.271,online_experiment,2021.1.4,MacIntel,60.0024001,FALSE,,"Mozilla/5.0 (Macintosh; Intel Mac OS X 10_15_7) AppleWebKit/537.36 (KHTML, like Gecko) Chrome/92.0.4515.131 Safari/537.36",1792,984,1792,1120,,,,,,,,3,3.8627,0.372205353,-0.425756836,1,0,0,next_trial_button,0,6,6,62,1,landscape,visiblesun,noclouds,7,"417.42389822807814,500",
,,,,,,,de,de,de,m,43,,2021-08-05_16h52.48.271,online_experiment,2021.1.4,MacIntel,60.0024001,FALSE,,"Mozilla/5.0 (Macintosh; Intel Mac OS X 10_15_7) AppleWebKit/537.36 (KHTML, like Gecko) Chrome/92.0.4515.131 Safari/537.36",1792,984,1792,1120,,,,,,,,1,3.2423,0.415802983,-0.408688463,1,0,0,next_trial_button,0,7,7,60,1,landscape,invisiblesun,noclouds,7,"666.7268134247564,500",
,,,,,,,de,de,de,m,43,,2021-08-05_16h52.48.271,online_experiment,2021.1.4,MacIntel,60.0024001,FALSE,,"Mozilla/5.0 (Macintosh; Intel Mac OS X 10_15_7) AppleWebKit/537.36 (KHTML, like Gecko) Chrome/92.0.4515.131 Safari/537.36",1792,984,1792,1120,,,,,,,,1,7.4429,0.386443983,-0.418906403,1,0,0,next_trial_button,0,8,8,30,1,landscape,visiblesun,noclouds,3,"346.3035019455253,500",
,,,,,,,de,de,de,m,43,,2021-08-05_16h52.48.271,online_experiment,2021.1.4,MacIntel,60.0024001,FALSE,,"Mozilla/5.0 (Macintosh; Intel Mac OS X 10_15_7) AppleWebKit/537.36 (KHTML, like Gecko) Chrome/92.0.4515.131 Safari/537.36",1792,984,1792,1120,,,,,,,,8,6.832,0.407139478,-0.415523747,1,0,0,next_trial_button,0,9,9,73,1,beach,invisiblesun,yesclouds,9,"1028.5714285714284,500",
,,,,,,,de,de,de,m,43,,2021-08-05_16h52.48.271,online_experiment,2021.1.4,MacIntel,60.0024001,FALSE,,"Mozilla/5.0 (Macintosh; Intel Mac OS X 10_15_7) AppleWebKit/537.36 (KHTML, like Gecko) Chrome/92.0.4515.131 Safari/537.36",1792,984,1792,1120,,,,,,,,1,5.8574,0.409891728,-0.398823983,1,0,0,next_trial_button,0,10,10,76,1,landscape,invisiblesun,noclouds,9,"1056.6037735849056,500",
,,,,,,,de,de,de,m,43,,2021-08-05_16h52.48.271,online_experiment,2021.1.4,MacIntel,60.0024001,FALSE,,"Mozilla/5.0 (Macintosh; Intel Mac OS X 10_15_7) AppleWebKit/537.36 (KHTML, like Gecko) Chrome/92.0.4515.131 Safari/537.36",1792,984,1792,1120,,,,,,,,3,5.8278,0.353069305,-0.396257673,1,0,0,next_trial_button,0,11,11,38,1,landscape,visiblesun,noclouds,4,"733.3333333333333,500",
,,,,,,,de,de,de,m,43,,2021-08-05_16h52.48.271,online_experiment,2021.1.4,MacIntel,60.0024001,FALSE,,"Mozilla/5.0 (Macintosh; Intel Mac OS X 10_15_7) AppleWebKit/537.36 (KHTML, like Gecko) Chrome/92.0.4515.131 Safari/537.36",1792,984,1792,1120,,,,,,,,6,4.7329,0.391877529,-0.404752404,1,0,0,next_trial_button,0,12,12,24,1,beach,invisiblesun,noclouds,3,"750.089190153407,500",
,,,,,,,de,de,de,m,43,,2021-08-05_16h52.48.271,online_experiment,2021.1.4,MacIntel,60.0024001,FALSE,,"Mozilla/5.0 (Macintosh; Intel Mac OS X 10_15_7) AppleWebKit/537.36 (KHTML, like Gecko) Chrome/92.0.4515.131 Safari/537.36",1792,984,1792,1120,,,,,,,,9,3.4924,0.400127411,-0.427899061,1,0,0,next_trial_button,0,13,13,40,1,beach,invisiblesun,noclouds,5,"1028.5714285714284,500",
,,,,,,,de,de,de,m,43,,2021-08-05_16h52.48.271,online_experiment,2021.1.4,MacIntel,60.0024001,FALSE,,"Mozilla/5.0 (Macintosh; Intel Mac OS X 10_15_7) AppleWebKit/537.36 (KHTML, like Gecko) Chrome/92.0.4515.131 Safari/537.36",1792,984,1792,1120,,,,,,,,1,4.1763,0.443168858,-0.408562905,1,0,0,next_trial_button,0,14,14,28,1,landscape,invisiblesun,noclouds,3,"888.8888888888888,500",
,,,,,,,de,de,de,m,43,,2021-08-05_16h52.48.271,online_experiment,2021.1.4,MacIntel,60.0024001,FALSE,,"Mozilla/5.0 (Macintosh; Intel Mac OS X 10_15_7) AppleWebKit/537.36 (KHTML, like Gecko) Chrome/92.0.4515.131 Safari/537.36",1792,984,1792,1120,,,,,,,,1,3.1599,0.435675594,-0.42536196,1,0,0,next_trial_button,0,15,15,23,1,landscape,visiblesun,yesclouds,2,"767.97829036635,500",
,,,,,,,de,de,de,m,43,,2021-08-05_16h52.48.271,online_experiment,2021.1.4,MacIntel,60.0024001,FALSE,,"Mozilla/5.0 (Macintosh; Intel Mac OS X 10_15_7) AppleWebKit/537.36 (KHTML, like Gecko) Chrome/92.0.4515.131 Safari/537.36",1792,984,1792,1120,,,,,,,,7,7.0631,0.409879412,-0.400810078,1,0,0,next_trial_button,0,16,16,44,1,landscape,invisiblesun,noclouds,5,"666.6666666666666,500",
,,,,,,,de,de,de,m,43,,2021-08-05_16h52.48.271,online_experiment,2021.1.4,MacIntel,60.0024001,FALSE,,"Mozilla/5.0 (Macintosh; Intel Mac OS X 10_15_7) AppleWebKit/537.36 (KHTML, like Gecko) Chrome/92.0.4515.131 Safari/537.36",1792,984,1792,1120,,,,,,,,2,4.3075,0.385876247,-0.432249342,1,0,0,next_trial_button,0,17,17,13,1,landscape,invisiblesun,yesclouds,1,"783.1192660550458,500",
,,,,,,,de,de,de,m,43,,2021-08-05_16h52.48.271,online_experiment,2021.1.4,MacIntel,60.0024001,FALSE,,"Mozilla/5.0 (Macintosh; Intel Mac OS X 10_15_7) AppleWebKit/537.36 (KHTML, like Gecko) Chrome/92.0.4515.131 Safari/537.36",1792,984,1792,1120,,,,,,,,9,2.4756,0.39292232,-0.421704647,1,0,0,next_trial_button,0,18,18,16,1,beach,invisiblesun,noclouds,2,"752.8089887640449,500",
,,,,,,,de,de,de,m,43,,2021-08-05_16h52.48.271,online_experiment,2021.1.4,MacIntel,60.0024001,FALSE,,"Mozilla/5.0 (Macintosh; Intel Mac OS X 10_15_7) AppleWebKit/537.36 (KHTML, like Gecko) Chrome/92.0.4515.131 Safari/537.36",1792,984,1792,1120,,,,,,,,2,2.1578,0.401789202,-0.421736036,1,0,0,next_trial_button,0,19,19,77,1,landscape,invisiblesun,yesclouds,9,"888.8888888888888,500",
,,,,,,,de,de,de,m,43,,2021-08-05_16h52.48.271,online_experiment,2021.1.4,MacIntel,60.0024001,FALSE,,"Mozilla/5.0 (Macintosh; Intel Mac OS X 10_15_7) AppleWebKit/537.36 (KHTML, like Gecko) Chrome/92.0.4515.131 Safari/537.36",1792,984,1792,1120,,,,,,,,1,3.5111,0.396303994,-0.392537962,1,0,0,next_trial_button,0,20,20,70,1,landscape,visiblesun,noclouds,8,"666.6666666666666,500",
,,,,,,,de,de,de,m,43,,2021-08-05_16h52.48.271,online_experiment,2021.1.4,MacIntel,60.0024001,FALSE,,"Mozilla/5.0 (Macintosh; Intel Mac OS X 10_15_7) AppleWebKit/537.36 (KHTML, like Gecko) Chrome/92.0.4515.131 Safari/537.36",1792,984,1792,1120,,,,,,,,3,5.443,0.343452999,-0.42261516,1,0,0,next_trial_button,0,21,21,39,1,landscape,visiblesun,yesclouds,4,"749.7656982193065,500",
,,,,,,,de,de,de,m,43,,2021-08-05_16h52.48.271,online_experiment,2021.1.4,MacIntel,60.0024001,FALSE,,"Mozilla/5.0 (Macintosh; Intel Mac OS X 10_15_7) AppleWebKit/537.36 (KHTML, like Gecko) Chrome/92.0.4515.131 Safari/537.36",1792,984,1792,1120,,,,,,,,3,6.3263,0.416895512,-0.402702114,1,0,0,next_trial_button,0,22,22,31,1,landscape,visiblesun,yesclouds,3,"638.0622837370242,500",
,,,,,,,de,de,de,m,43,,2021-08-05_16h52.48.271,online_experiment,2021.1.4,MacIntel,60.0024001,FALSE,,"Mozilla/5.0 (Macintosh; Intel Mac OS X 10_15_7) AppleWebKit/537.36 (KHTML, like Gecko) Chrome/92.0.4515.131 Safari/537.36",1792,984,1792,1120,,,,,,,,2,4.2658,0.377868652,-0.403434862,1,0,0,next_trial_button,0,23,23,5,1,landscape,invisiblesun,yesclouds,0,"750.4690431519699,500",
,,,,,,,de,de,de,m,43,,2021-08-05_16h52.48.271,online_experiment,2021.1.4,MacIntel,60.0024001,FALSE,,"Mozilla/5.0 (Macintosh; Intel Mac OS X 10_15_7) AppleWebKit/537.36 (KHTML, like Gecko) Chrome/92.0.4515.131 Safari/537.36",1792,984,1792,1120,,,,,,,,7,2.6312,0.422147914,-0.424484035,1,0,0,next_trial_button,0,24,24,63,1,landscape,visiblesun,yesclouds,7,"331.94444444444446,500",
,,,,,,,de,de,de,m,43,,2021-08-05_16h52.48.271,online_experiment,2021.1.4,MacIntel,60.0024001,FALSE,,"Mozilla/5.0 (Macintosh; Intel Mac OS X 10_15_7) AppleWebKit/537.36 (KHTML, like Gecko) Chrome/92.0.4515.131 Safari/537.36",1792,984,1792,1120,,,,,,,,8,4.7661,0.422810255,-0.416157096,1,0,0,next_trial_button,0,25,25,21,1,landscape,invisiblesun,yesclouds,2,"750,500",
,,,,,,,de,de,de,m,43,,2021-08-05_16h52.48.271,online_experiment,2021.1.4,MacIntel,60.0024001,FALSE,,"Mozilla/5.0 (Macintosh; Intel Mac OS X 10_15_7) AppleWebKit/537.36 (KHTML, like Gecko) Chrome/92.0.4515.131 Safari/537.36",1792,984,1792,1120,,,,,,,,3,3.6261,0.395912061,-0.429013171,1,0,0,next_trial_button,0,26,26,6,1,landscape,visiblesun,noclouds,0,"1413.8005159071367,500",
,,,,,,,de,de,de,m,43,,2021-08-05_16h52.48.271,online_experiment,2021.1.4,MacIntel,60.0024001,FALSE,,"Mozilla/5.0 (Macintosh; Intel Mac OS X 10_15_7) AppleWebKit/537.36 (KHTML, like Gecko) Chrome/92.0.4515.131 Safari/537.36",1792,984,1792,1120,,,,,,,,3,3.7097,0.383657728,-0.406451906,1,0,0,next_trial_button,0,27,27,7,1,landscape,visiblesun,yesclouds,0,"743.421052631579,500",
,,,,,,,de,de,de,m,43,,2021-08-05_16h52.48.271,online_experiment,2021.1.4,MacIntel,60.0024001,FALSE,,"Mozilla/5.0 (Macintosh; Intel Mac OS X 10_15_7) AppleWebKit/537.36 (KHTML, like Gecko) Chrome/92.0.4515.131 Safari/537.36",1792,984,1792,1120,,,,,,,,8,7.8913,0.409965297,-0.400245122,1,0,0,next_trial_button,0,28,28,51,1,beach,visiblesun,yesclouds,6,"657.1279916753382,500",
,,,,,,,de,de,de,m,43,,2021-08-05_16h52.48.271,online_experiment,2021.1.4,MacIntel,60.0024001,FALSE,,"Mozilla/5.0 (Macintosh; Intel Mac OS X 10_15_7) AppleWebKit/537.36 (KHTML, like Gecko) Chrome/92.0.4515.131 Safari/537.36",1792,984,1792,1120,,,,,,,,8,2.3767,0.425352587,-0.438841357,1,0,0,next_trial_button,0,29,29,74,1,beach,visiblesun,noclouds,9,"1028.5714285714284,500",
,,,,,,,de,de,de,m,43,,2021-08-05_16h52.48.271,online_experiment,2021.1.4,MacIntel,60.0024001,FALSE,,"Mozilla/5.0 (Macintosh; Intel Mac OS X 10_15_7) AppleWebKit/537.36 (KHTML, like Gecko) Chrome/92.0.4515.131 Safari/537.36",1792,984,1792,1120,,,,,,,,7,5.4745,0.52608817,-0.410221754,1,0,0,next_trial_button,0,30,30,58,1,beach,visiblesun,noclouds,7,"1028.5714285714284,500",
,,,,,,,de,de,de,m,43,,2021-08-05_16h52.48.271,online_experiment,2021.1.4,MacIntel,60.0024001,FALSE,,"Mozilla/5.0 (Macintosh; Intel Mac OS X 10_15_7) AppleWebKit/537.36 (KHTML, like Gecko) Chrome/92.0.4515.131 Safari/537.36",1792,984,1792,1120,,,,,,,,8,2.4582,0.378141567,-0.44108429,1,0,0,next_trial_button,0,31,31,75,1,beach,visiblesun,yesclouds,9,"1029.6010296010297,500",
,,,,,,,de,de,de,m,43,,2021-08-05_16h52.48.271,online_experiment,2021.1.4,MacIntel,60.0024001,FALSE,,"Mozilla/5.0 (Macintosh; Intel Mac OS X 10_15_7) AppleWebKit/537.36 (KHTML, like Gecko) Chrome/92.0.4515.131 Safari/537.36",1792,984,1792,1120,,,,,,,,8,3.2974,0.440573338,-0.414138031,1,0,0,next_trial_button,0,32,32,11,1,beach,visiblesun,yesclouds,1,"989.8132427843803,500",
,,,,,,,de,de,de,m,43,,2021-08-05_16h52.48.271,online_experiment,2021.1.4,MacIntel,60.0024001,FALSE,,"Mozilla/5.0 (Macintosh; Intel Mac OS X 10_15_7) AppleWebKit/537.36 (KHTML, like Gecko) Chrome/92.0.4515.131 Safari/537.36",1792,984,1792,1120,,,,,,,,8,5.9414,0.381919643,-0.409709167,1,0,0,next_trial_button,0,33,33,61,1,landscape,invisiblesun,yesclouds,7,"500,500",
,,,,,,,de,de,de,m,43,,2021-08-05_16h52.48.271,online_experiment,2021.1.4,MacIntel,60.0024001,FALSE,,"Mozilla/5.0 (Macintosh; Intel Mac OS X 10_15_7) AppleWebKit/537.36 (KHTML, like Gecko) Chrome/92.0.4515.131 Safari/537.36",1792,984,1792,1120,,,,,,,,8,3.1921,0.383759417,-0.432453918,1,0,0,next_trial_button,0,34,34,25,1,beach,invisiblesun,yesclouds,3,"750.4690431519699,500",
,,,,,,,de,de,de,m,43,,2021-08-05_16h52.48.271,online_experiment,2021.1.4,MacIntel,60.0024001,FALSE,,"Mozilla/5.0 (Macintosh; Intel Mac OS X 10_15_7) AppleWebKit/537.36 (KHTML, like Gecko) Chrome/92.0.4515.131 Safari/537.36",1792,984,1792,1120,,,,,,,,8,4.1595,0.406787763,-0.431696429,1,0,0,next_trial_button,0,35,35,65,1,beach,invisiblesun,yesclouds,8,"750,500",
,,,,,,,de,de,de,m,43,,2021-08-05_16h52.48.271,online_experiment,2021.1.4,MacIntel,60.0024001,FALSE,,"Mozilla/5.0 (Macintosh; Intel Mac OS X 10_15_7) AppleWebKit/537.36 (KHTML, like Gecko) Chrome/92.0.4515.131 Safari/537.36",1792,984,1792,1120,,,,,,,,7,3.1737,0.383890424,-0.42280208,1,0,0,next_trial_button,0,36,36,78,1,landscape,visiblesun,noclouds,9,"666.6666666666666,500",
,,,,,,,de,de,de,m,43,,2021-08-05_16h52.48.271,online_experiment,2021.1.4,MacIntel,60.0024001,FALSE,,"Mozilla/5.0 (Macintosh; Intel Mac OS X 10_15_7) AppleWebKit/537.36 (KHTML, like Gecko) Chrome/92.0.4515.131 Safari/537.36",1792,984,1792,1120,,,,,,,,7,2.4227,0.41540778,-0.413505173,1,0,0,next_trial_button,0,37,37,29,1,landscape,invisiblesun,yesclouds,3,"749.8660953401178,500",
,,,,,,,de,de,de,m,43,,2021-08-05_16h52.48.271,online_experiment,2021.1.4,MacIntel,60.0024001,FALSE,,"Mozilla/5.0 (Macintosh; Intel Mac OS X 10_15_7) AppleWebKit/537.36 (KHTML, like Gecko) Chrome/92.0.4515.131 Safari/537.36",1792,984,1792,1120,,,,,,,,9,3.6577,0.373617663,-0.431573813,1,0,0,next_trial_button,0,38,38,53,1,landscape,invisiblesun,yesclouds,6,"750.0695023630803,500",
,,,,,,,de,de,de,m,43,,2021-08-05_16h52.48.271,online_experiment,2021.1.4,MacIntel,60.0024001,FALSE,,"Mozilla/5.0 (Macintosh; Intel Mac OS X 10_15_7) AppleWebKit/537.36 (KHTML, like Gecko) Chrome/92.0.4515.131 Safari/537.36",1792,984,1792,1120,,,,,,,,6,2.4261,0.37635825,-0.414099721,1,0,0,next_trial_button,0,39,39,46,1,landscape,visiblesun,noclouds,5,"750,500",
,,,,,,,de,de,de,m,43,,2021-08-05_16h52.48.271,online_experiment,2021.1.4,MacIntel,60.0024001,FALSE,,"Mozilla/5.0 (Macintosh; Intel Mac OS X 10_15_7) AppleWebKit/537.36 (KHTML, like Gecko) Chrome/92.0.4515.131 Safari/537.36",1792,984,1792,1120,,,,,,,,7,3.9227,0.429130009,-0.429188756,1,0,0,next_trial_button,0,40,40,37,1,landscape,invisiblesun,yesclouds,4,"669.4214876033058,500",
,,,,,,,de,de,de,m,43,,2021-08-05_16h52.48.271,online_experiment,2021.1.4,MacIntel,60.0024001,FALSE,,"Mozilla/5.0 (Macintosh; Intel Mac OS X 10_15_7) AppleWebKit/537.36 (KHTML, like Gecko) Chrome/92.0.4515.131 Safari/537.36",1792,984,1792,1120,,,,,,,,4,3.1109,0.332076808,-0.437675694,1,0,0,next_trial_button,0,41,41,47,1,landscape,visiblesun,yesclouds,5,"666.6666666666666,500",
,,,,,,,de,de,de,m,43,,2021-08-05_16h52.48.271,online_experiment,2021.1.4,MacIntel,60.0024001,FALSE,,"Mozilla/5.0 (Macintosh; Intel Mac OS X 10_15_7) AppleWebKit/537.36 (KHTML, like Gecko) Chrome/92.0.4515.131 Safari/537.36",1792,984,1792,1120,,,,,,,,5,3.3821,0.34849374,-0.407562583,1,0,0,next_trial_button,0,42,42,2,1,beach,visiblesun,noclouds,0,"375,500",
,,,,,,,de,de,de,m,43,,2021-08-05_16h52.48.271,online_experiment,2021.1.4,MacIntel,60.0024001,FALSE,,"Mozilla/5.0 (Macintosh; Intel Mac OS X 10_15_7) AppleWebKit/537.36 (KHTML, like Gecko) Chrome/92.0.4515.131 Safari/537.36",1792,984,1792,1120,,,,,,,,6,2.9248,0.433850752,-0.41564124,1,0,0,next_trial_button,0,43,43,34,1,beach,visiblesun,noclouds,4,"749.6251874062968,500",
,,,,,,,de,de,de,m,43,,2021-08-05_16h52.48.271,online_experiment,2021.1.4,MacIntel,60.0024001,FALSE,,"Mozilla/5.0 (Macintosh; Intel Mac OS X 10_15_7) AppleWebKit/537.36 (KHTML, like Gecko) Chrome/92.0.4515.131 Safari/537.36",1792,984,1792,1120,,,,,,,,7,4.4401,0.421894618,-0.410870089,1,0,0,next_trial_button,0,44,44,67,1,beach,visiblesun,yesclouds,8,"748.1481481481482,500",
,,,,,,,de,de,de,m,43,,2021-08-05_16h52.48.271,online_experiment,2021.1.4,MacIntel,60.0024001,FALSE,,"Mozilla/5.0 (Macintosh; Intel Mac OS X 10_15_7) AppleWebKit/537.36 (KHTML, like Gecko) Chrome/92.0.4515.131 Safari/537.36",1792,984,1792,1120,,,,,,,,5,4.5105,0.330251966,-0.418917738,1,0,0,next_trial_button,0,45,45,26,1,beach,visiblesun,noclouds,3,"888.8888888888888,500",
,,,,,,,de,de,de,m,43,,2021-08-05_16h52.48.271,online_experiment,2021.1.4,MacIntel,60.0024001,FALSE,,"Mozilla/5.0 (Macintosh; Intel Mac OS X 10_15_7) AppleWebKit/537.36 (KHTML, like Gecko) Chrome/92.0.4515.131 Safari/537.36",1792,984,1792,1120,,,,,,,,5,5.0278,0.368870544,-0.406206567,1,0,0,next_trial_button,0,46,46,48,1,beach,invisiblesun,noclouds,6,"1028.5714285714284,500",
,,,,,,,de,de,de,m,43,,2021-08-05_16h52.48.271,online_experiment,2021.1.4,MacIntel,60.0024001,FALSE,,"Mozilla/5.0 (Macintosh; Intel Mac OS X 10_15_7) AppleWebKit/537.36 (KHTML, like Gecko) Chrome/92.0.4515.131 Safari/537.36",1792,984,1792,1120,,,,,,,,5,3.5584,0.532373919,-0.418446677,1,0,0,next_trial_button,0,47,47,17,1,beach,invisiblesun,yesclouds,2,"684.8635235732011,500",
,,,,,,,de,de,de,m,43,,2021-08-05_16h52.48.271,online_experiment,2021.1.4,MacIntel,60.0024001,FALSE,,"Mozilla/5.0 (Macintosh; Intel Mac OS X 10_15_7) AppleWebKit/537.36 (KHTML, like Gecko) Chrome/92.0.4515.131 Safari/537.36",1792,984,1792,1120,,,,,,,,7,2.907,0.422806113,-0.414948491,1,0,0,next_trial_button,0,48,48,3,1,beach,visiblesun,yesclouds,0,"1152.5122276567363,500",
,,,,,,,de,de,de,m,43,,2021-08-05_16h52.48.271,online_experiment,2021.1.4,MacIntel,60.0024001,FALSE,,"Mozilla/5.0 (Macintosh; Intel Mac OS X 10_15_7) AppleWebKit/537.36 (KHTML, like Gecko) Chrome/92.0.4515.131 Safari/537.36",1792,984,1792,1120,,,,,,,,8,2.5607,0.378046417,-0.419257791,1,0,0,next_trial_button,0,49,49,1,1,beach,invisiblesun,yesclouds,0,"666.6666666666666,500",
,,,,,,,de,de,de,m,43,,2021-08-05_16h52.48.271,online_experiment,2021.1.4,MacIntel,60.0024001,FALSE,,"Mozilla/5.0 (Macintosh; Intel Mac OS X 10_15_7) AppleWebKit/537.36 (KHTML, like Gecko) Chrome/92.0.4515.131 Safari/537.36",1792,984,1792,1120,,,,,,,,2,6.6773,0.444189126,-0.409647315,1,0,0,next_trial_button,0,50,50,55,1,landscape,visiblesun,yesclouds,6,"749.8819083608881,500",
,,,,,,,de,de,de,m,43,,2021-08-05_16h52.48.271,online_experiment,2021.1.4,MacIntel,60.0024001,FALSE,,"Mozilla/5.0 (Macintosh; Intel Mac OS X 10_15_7) AppleWebKit/537.36 (KHTML, like Gecko) Chrome/92.0.4515.131 Safari/537.36",1792,984,1792,1120,,,,,,,,4,3.0234,0.377378954,-0.395157405,1,0,0,next_trial_button,0,51,51,54,1,landscape,visiblesun,noclouds,6,"695.0043821209465,500",
,,,,,,,de,de,de,m,43,,2021-08-05_16h52.48.271,online_experiment,2021.1.4,MacIntel,60.0024001,FALSE,,"Mozilla/5.0 (Macintosh; Intel Mac OS X 10_15_7) AppleWebKit/537.36 (KHTML, like Gecko) Chrome/92.0.4515.131 Safari/537.36",1792,984,1792,1120,,,,,,,,3,3.644,0.382314519,-0.402355794,1,0,0,next_trial_button,0,52,52,14,1,landscape,visiblesun,noclouds,1,"745.9919839679359,500",
,,,,,,,de,de,de,m,43,,2021-08-05_16h52.48.271,online_experiment,2021.1.4,MacIntel,60.0024001,FALSE,,"Mozilla/5.0 (Macintosh; Intel Mac OS X 10_15_7) AppleWebKit/537.36 (KHTML, like Gecko) Chrome/92.0.4515.131 Safari/537.36",1792,984,1792,1120,,,,,,,,6,5.5485,0.462584904,-0.424534171,1,0,0,next_trial_button,0,53,53,50,1,beach,visiblesun,noclouds,6,"666.6666666666666,500",
,,,,,,,de,de,de,m,43,,2021-08-05_16h52.48.271,online_experiment,2021.1.4,MacIntel,60.0024001,FALSE,,"Mozilla/5.0 (Macintosh; Intel Mac OS X 10_15_7) AppleWebKit/537.36 (KHTML, like Gecko) Chrome/92.0.4515.131 Safari/537.36",1792,984,1792,1120,,,,,,,,7,6.2244,0.382520403,-0.419646345,1,0,0,next_trial_button,0,54,54,15,1,landscape,visiblesun,yesclouds,1,"333.3333333333333,500",
,,,,,,,de,de,de,m,43,,2021-08-05_16h52.48.271,online_experiment,2021.1.4,MacIntel,60.0024001,FALSE,,"Mozilla/5.0 (Macintosh; Intel Mac OS X 10_15_7) AppleWebKit/537.36 (KHTML, like Gecko) Chrome/92.0.4515.131 Safari/537.36",1792,984,1792,1120,,,,,,,,7,4.4318,0.419921548,-0.418982043,1,0,0,next_trial_button,0,55,55,20,1,landscape,invisiblesun,noclouds,2,"755.192878338279,500",
,,,,,,,de,de,de,m,43,,2021-08-05_16h52.48.271,online_experiment,2021.1.4,MacIntel,60.0024001,FALSE,,"Mozilla/5.0 (Macintosh; Intel Mac OS X 10_15_7) AppleWebKit/537.36 (KHTML, like Gecko) Chrome/92.0.4515.131 Safari/537.36",1792,984,1792,1120,,,,,,,,7,7.6989,0.397423989,-0.416408757,1,0,0,next_trial_button,0,56,56,33,1,beach,invisiblesun,yesclouds,4,"751.5473032714411,500",
,,,,,,,de,de,de,m,43,,2021-08-05_16h52.48.271,online_experiment,2021.1.4,MacIntel,60.0024001,FALSE,,"Mozilla/5.0 (Macintosh; Intel Mac OS X 10_15_7) AppleWebKit/537.36 (KHTML, like Gecko) Chrome/92.0.4515.131 Safari/537.36",1792,984,1792,1120,,,,,,,,3,3.6088,0.348849487,-0.403297479,1,0,0,next_trial_button,0,57,57,79,1,landscape,visiblesun,yesclouds,9,"1028.5714285714284,500",
,,,,,,,de,de,de,m,43,,2021-08-05_16h52.48.271,online_experiment,2021.1.4,MacIntel,60.0024001,FALSE,,"Mozilla/5.0 (Macintosh; Intel Mac OS X 10_15_7) AppleWebKit/537.36 (KHTML, like Gecko) Chrome/92.0.4515.131 Safari/537.36",1792,984,1792,1120,,,,,,,,2,4.2424,0.426509094,-0.425954437,1,0,0,next_trial_button,0,58,58,32,1,beach,invisiblesun,noclouds,4,"750,500",
,,,,,,,de,de,de,m,43,,2021-08-05_16h52.48.271,online_experiment,2021.1.4,MacIntel,60.0024001,FALSE,,"Mozilla/5.0 (Macintosh; Intel Mac OS X 10_15_7) AppleWebKit/537.36 (KHTML, like Gecko) Chrome/92.0.4515.131 Safari/537.36",1792,984,1792,1120,,,,,,,,5,3.6609,0.430405753,-0.404437692,1,0,0,next_trial_button,0,59,59,8,1,beach,invisiblesun,noclouds,1,"1215.1898734177216,500",
,,,,,,,de,de,de,m,43,,2021-08-05_16h52.48.271,online_experiment,2021.1.4,MacIntel,60.0024001,FALSE,,"Mozilla/5.0 (Macintosh; Intel Mac OS X 10_15_7) AppleWebKit/537.36 (KHTML, like Gecko) Chrome/92.0.4515.131 Safari/537.36",1792,984,1792,1120,,,,,,,,6,4.4102,0.397021266,-0.418110112,1,0,0,next_trial_button,0,60,60,66,1,beach,visiblesun,noclouds,8,"1028.5714285714284,500",
,,,,,,,de,de,de,m,43,,2021-08-05_16h52.48.271,online_experiment,2021.1.4,MacIntel,60.0024001,FALSE,,"Mozilla/5.0 (Macintosh; Intel Mac OS X 10_15_7) AppleWebKit/537.36 (KHTML, like Gecko) Chrome/92.0.4515.131 Safari/537.36",1792,984,1792,1120,,,,,,,,3,3.0911,0.378920092,-0.422795432,1,0,0,next_trial_button,0,61,61,71,1,landscape,visiblesun,yesclouds,8,"666.6666666666666,500",
,,,,,,,de,de,de,m,43,,2021-08-05_16h52.48.271,online_experiment,2021.1.4,MacIntel,60.0024001,FALSE,,"Mozilla/5.0 (Macintosh; Intel Mac OS X 10_15_7) AppleWebKit/537.36 (KHTML, like Gecko) Chrome/92.0.4515.131 Safari/537.36",1792,984,1792,1120,,,,,,,,8,3.2572,0.438457053,-0.410929762,1,0,0,next_trial_button,0,62,62,4,1,landscape,invisiblesun,noclouds,0,"1276.9171185127807,500",
,,,,,,,de,de,de,m,43,,2021-08-05_16h52.48.271,online_experiment,2021.1.4,MacIntel,60.0024001,FALSE,,"Mozilla/5.0 (Macintosh; Intel Mac OS X 10_15_7) AppleWebKit/537.36 (KHTML, like Gecko) Chrome/92.0.4515.131 Safari/537.36",1792,984,1792,1120,,,,,,,,1,2.2833,0.397327641,-0.408371353,1,0,0,next_trial_button,0,63,63,68,1,landscape,invisiblesun,noclouds,8,"666.6666666666666,500",
,,,,,,,de,de,de,m,43,,2021-08-05_16h52.48.271,online_experiment,2021.1.4,MacIntel,60.0024001,FALSE,,"Mozilla/5.0 (Macintosh; Intel Mac OS X 10_15_7) AppleWebKit/537.36 (KHTML, like Gecko) Chrome/92.0.4515.131 Safari/537.36",1792,984,1792,1120,,,,,,,,7,5.0817,0.463044194,-0.408534241,1,0,0,next_trial_button,0,64,64,41,1,beach,invisiblesun,yesclouds,5,"1248.4394506866417,500",
,,,,,,,de,de,de,m,43,,2021-08-05_16h52.48.271,online_experiment,2021.1.4,MacIntel,60.0024001,FALSE,,"Mozilla/5.0 (Macintosh; Intel Mac OS X 10_15_7) AppleWebKit/537.36 (KHTML, like Gecko) Chrome/92.0.4515.131 Safari/537.36",1792,984,1792,1120,,,,,,,,6,2.9786,0.418952506,-0.40767201,1,0,0,next_trial_button,0,65,65,9,1,beach,invisiblesun,yesclouds,1,"750,500",
,,,,,,,de,de,de,m,43,,2021-08-05_16h52.48.271,online_experiment,2021.1.4,MacIntel,60.0024001,FALSE,,"Mozilla/5.0 (Macintosh; Intel Mac OS X 10_15_7) AppleWebKit/537.36 (KHTML, like Gecko) Chrome/92.0.4515.131 Safari/537.36",1792,984,1792,1120,,,,,,,,5,3.3597,0.3702228,-0.398982893,1,0,0,next_trial_button,0,66,66,52,1,landscape,invisiblesun,noclouds,6,"666.6666666666666,500",
,,,,,,,de,de,de,m,43,,2021-08-05_16h52.48.271,online_experiment,2021.1.4,MacIntel,60.0024001,FALSE,,"Mozilla/5.0 (Macintosh; Intel Mac OS X 10_15_7) AppleWebKit/537.36 (KHTML, like Gecko) Chrome/92.0.4515.131 Safari/537.36",1792,984,1792,1120,,,,,,,,5,3.234,0.358710044,-0.419014304,1,0,0,next_trial_button,0,67,67,0,1,beach,invisiblesun,noclouds,0,"750,500",
,,,,,,,de,de,de,m,43,,2021-08-05_16h52.48.271,online_experiment,2021.1.4,MacIntel,60.0024001,FALSE,,"Mozilla/5.0 (Macintosh; Intel Mac OS X 10_15_7) AppleWebKit/537.36 (KHTML, like Gecko) Chrome/92.0.4515.131 Safari/537.36",1792,984,1792,1120,,,,,,,,6,3.259,0.418352291,-0.415988159,1,0,0,next_trial_button,0,68,68,10,1,beach,visiblesun,noclouds,1,"747.0261697065821,500",
,,,,,,,de,de,de,m,43,,2021-08-05_16h52.48.271,online_experiment,2021.1.4,MacIntel,60.0024001,FALSE,,"Mozilla/5.0 (Macintosh; Intel Mac OS X 10_15_7) AppleWebKit/537.36 (KHTML, like Gecko) Chrome/92.0.4515.131 Safari/537.36",1792,984,1792,1120,,,,,,,,4,4.4594,0.42026716,-0.43751297,1,0,0,next_trial_button,0,69,69,69,1,landscape,invisiblesun,yesclouds,8,"750,500",
,,,,,,,de,de,de,m,43,,2021-08-05_16h52.48.271,online_experiment,2021.1.4,MacIntel,60.0024001,FALSE,,"Mozilla/5.0 (Macintosh; Intel Mac OS X 10_15_7) AppleWebKit/537.36 (KHTML, like Gecko) Chrome/92.0.4515.131 Safari/537.36",1792,984,1792,1120,,,,,,,,5,2.5068,0.352472142,-0.428202711,1,0,0,next_trial_button,0,70,70,18,1,beach,visiblesun,noclouds,2,"666.6666666666666,500",
,,,,,,,de,de,de,m,43,,2021-08-05_16h52.48.271,online_experiment,2021.1.4,MacIntel,60.0024001,FALSE,,"Mozilla/5.0 (Macintosh; Intel Mac OS X 10_15_7) AppleWebKit/537.36 (KHTML, like Gecko) Chrome/92.0.4515.131 Safari/537.36",1792,984,1792,1120,,,,,,,,5,2.66,0.365660858,-0.413778251,1,0,0,next_trial_button,0,71,71,42,1,beach,visiblesun,noclouds,5,"834.4594594594595,500",
,,,,,,,de,de,de,m,43,,2021-08-05_16h52.48.271,online_experiment,2021.1.4,MacIntel,60.0024001,FALSE,,"Mozilla/5.0 (Macintosh; Intel Mac OS X 10_15_7) AppleWebKit/537.36 (KHTML, like Gecko) Chrome/92.0.4515.131 Safari/537.36",1792,984,1792,1120,,,,,,,,6,3.341,0.360240173,-0.439084407,1,0,0,next_trial_button,0,72,72,49,1,beach,invisiblesun,yesclouds,6,"858.4474885844749,500",
,,,,,,,de,de,de,m,43,,2021-08-05_16h52.48.271,online_experiment,2021.1.4,MacIntel,60.0024001,FALSE,,"Mozilla/5.0 (Macintosh; Intel Mac OS X 10_15_7) AppleWebKit/537.36 (KHTML, like Gecko) Chrome/92.0.4515.131 Safari/537.36",1792,984,1792,1120,,,,,,,,6,4.6269,0.408992331,-0.420290048,1,0,0,next_trial_button,0,73,73,22,1,landscape,visiblesun,noclouds,2,"749.3333333333333,500",
,,,,,,,de,de,de,m,43,,2021-08-05_16h52.48.271,online_experiment,2021.1.4,MacIntel,60.0024001,FALSE,,"Mozilla/5.0 (Macintosh; Intel Mac OS X 10_15_7) AppleWebKit/537.36 (KHTML, like Gecko) Chrome/92.0.4515.131 Safari/537.36",1792,984,1792,1120,,,,,,,,6,3.462,0.455585153,-0.41626042,1,0,0,next_trial_button,0,74,74,56,1,beach,invisiblesun,noclouds,7,"1028.5714285714284,500",
,,,,,,,de,de,de,m,43,,2021-08-05_16h52.48.271,online_experiment,2021.1.4,MacIntel,60.0024001,FALSE,,"Mozilla/5.0 (Macintosh; Intel Mac OS X 10_15_7) AppleWebKit/537.36 (KHTML, like Gecko) Chrome/92.0.4515.131 Safari/537.36",1792,984,1792,1120,,,,,,,,9,2.7219,0.465169307,-0.422935377,1,0,0,next_trial_button,0,75,75,45,1,landscape,invisiblesun,yesclouds,5,"749.6251874062968,500",
,,,,,,,de,de,de,m,43,,2021-08-05_16h52.48.271,online_experiment,2021.1.4,MacIntel,60.0024001,FALSE,,"Mozilla/5.0 (Macintosh; Intel Mac OS X 10_15_7) AppleWebKit/537.36 (KHTML, like Gecko) Chrome/92.0.4515.131 Safari/537.36",1792,984,1792,1120,,,,,,,,7,5.444,0.400323377,-0.406433814,1,0,0,next_trial_button,0,76,76,57,1,beach,invisiblesun,yesclouds,7,"749.707488299532,500",
,,,,,,,de,de,de,m,43,,2021-08-05_16h52.48.271,online_experiment,2021.1.4,MacIntel,60.0024001,FALSE,,"Mozilla/5.0 (Macintosh; Intel Mac OS X 10_15_7) AppleWebKit/537.36 (KHTML, like Gecko) Chrome/92.0.4515.131 Safari/537.36",1792,984,1792,1120,,,,,,,,7,2.3482,0.377126203,-0.409417997,1,0,0,next_trial_button,0,77,77,43,1,beach,visiblesun,yesclouds,5,"750,500",
,,,,,,,de,de,de,m,43,,2021-08-05_16h52.48.271,online_experiment,2021.1.4,MacIntel,60.0024001,FALSE,,"Mozilla/5.0 (Macintosh; Intel Mac OS X 10_15_7) AppleWebKit/537.36 (KHTML, like Gecko) Chrome/92.0.4515.131 Safari/537.36",1792,984,1792,1120,,,,,,,,6,6.4918,0.466657475,-0.426029641,1,0,0,next_trial_button,0,78,78,27,1,beach,visiblesun,yesclouds,3,"752.8089887640449,500",
,,,,,,,de,de,de,m,43,,2021-08-05_16h52.48.271,online_experiment,2021.1.4,MacIntel,60.0024001,FALSE,,"Mozilla/5.0 (Macintosh; Intel Mac OS X 10_15_7) AppleWebKit/537.36 (KHTML, like Gecko) Chrome/92.0.4515.131 Safari/537.36",1792,984,1792,1120,,,,,,,,6,2.0742,0.366663034,-0.429072571,1,0,0,next_trial_button,0,79,79,19,1,beach,visiblesun,yesclouds,2,"770.1393095093882,500",
,,,,,,,de,de,de,m,43,,2021-08-05_16h52.48.271,online_experiment,2021.1.4,MacIntel,60.0024001,FALSE,,"Mozilla/5.0 (Macintosh; Intel Mac OS X 10_15_7) AppleWebKit/537.36 (KHTML, like Gecko) Chrome/92.0.4515.131 Safari/537.36",1792,984,1792,1120,,,,,,,,,,,,,,,,,,,,,,,,,"770.1393095093882,500",473.9197
