language_mouse.x,language_mouse.y,language_mouse.leftButton,language_mouse.midButton,language_mouse.rightButton,language_mouse.time,language_mouse.clicked_name,nationality,mother_tongue,homeland,gender,age,email,date,expName,psychopyVersion,OS,frameRate,cancel_experiment,cancel_reasons,client_agent_information,windowWidth,windowHeight,xRes,yRes,start_exp_mouse.x,start_exp_mouse.y,start_exp_mouse.leftButton,start_exp_mouse.midButton,start_exp_mouse.rightButton,start_exp_mouse.time,start_exp_mouse.clicked_name,rating_slider.response,rating_slider.rt,next_trial_mouse.x,next_trial_mouse.y,next_trial_mouse.leftButton,next_trial_mouse.midButton,next_trial_mouse.rightButton,next_trial_mouse.clicked_name,trials.thisRepN,trials.thisTrialN,trials.thisN,trials.thisIndex,trials.ran,environment,sunVisibility,cloudVisibility,imageId,imgSize,globalClockTime
-0.31526001,-0.29221483,1,0,0,1.4667,de_flag,de,de,de,f,24,,2021-08-09_14h41.38.464,online_experiment,2021.1.4,MacIntel,60.0024001,FALSE,,"Mozilla/5.0 (Macintosh; Intel Mac OS X 10_15_7) AppleWebKit/537.36 (KHTML, like Gecko) Chrome/91.0.4472.114 Safari/537.36",1440,789,1440,900,,,,,,,,,,,,,,,,,,,,,,,,,,
,,,,,,,de,de,de,f,24,,2021-08-09_14h41.38.464,online_experiment,2021.1.4,MacIntel,60.0024001,FALSE,,"Mozilla/5.0 (Macintosh; Intel Mac OS X 10_15_7) AppleWebKit/537.36 (KHTML, like Gecko) Chrome/91.0.4472.114 Safari/537.36",1440,789,1440,900,0.051882731,-0.375253432,1,0,0,14.5017,start_button,2,7.5922,0.399812012,-0.411088596,1,0,0,next_trial_button,0,0,0,6,1,landscape,visiblesun,noclouds,0,"1413.8005159071367,500",
,,,,,,,de,de,de,f,24,,2021-08-09_14h41.38.464,online_experiment,2021.1.4,MacIntel,60.0024001,FALSE,,"Mozilla/5.0 (Macintosh; Intel Mac OS X 10_15_7) AppleWebKit/537.36 (KHTML, like Gecko) Chrome/91.0.4472.114 Safari/537.36",1440,789,1440,900,,,,,,,,3,3.2439,0.411924642,-0.407867771,1,0,0,next_trial_button,0,1,1,62,1,landscape,visiblesun,noclouds,7,"417.42389822807814,500",
,,,,,,,de,de,de,f,24,,2021-08-09_14h41.38.464,online_experiment,2021.1.4,MacIntel,60.0024001,FALSE,,"Mozilla/5.0 (Macintosh; Intel Mac OS X 10_15_7) AppleWebKit/537.36 (KHTML, like Gecko) Chrome/91.0.4472.114 Safari/537.36",1440,789,1440,900,,,,,,,,3,3.8795,0.421363118,-0.432978787,1,0,0,next_trial_button,0,2,2,37,1,landscape,invisiblesun,yesclouds,4,"669.4214876033058,500",
,,,,,,,de,de,de,f,24,,2021-08-09_14h41.38.464,online_experiment,2021.1.4,MacIntel,60.0024001,FALSE,,"Mozilla/5.0 (Macintosh; Intel Mac OS X 10_15_7) AppleWebKit/537.36 (KHTML, like Gecko) Chrome/91.0.4472.114 Safari/537.36",1440,789,1440,900,,,,,,,,3,4.0657,0.408548041,-0.428441433,1,0,0,next_trial_button,0,3,3,47,1,landscape,visiblesun,yesclouds,5,"666.6666666666666,500",
,,,,,,,de,de,de,f,24,,2021-08-09_14h41.38.464,online_experiment,2021.1.4,MacIntel,60.0024001,FALSE,,"Mozilla/5.0 (Macintosh; Intel Mac OS X 10_15_7) AppleWebKit/537.36 (KHTML, like Gecko) Chrome/91.0.4472.114 Safari/537.36",1440,789,1440,900,,,,,,,,4,3.8344,0.34783705,-0.434169312,1,0,0,next_trial_button,0,4,4,17,1,beach,invisiblesun,yesclouds,2,"684.8635235732011,500",
,,,,,,,de,de,de,f,24,,2021-08-09_14h41.38.464,online_experiment,2021.1.4,MacIntel,60.0024001,FALSE,,"Mozilla/5.0 (Macintosh; Intel Mac OS X 10_15_7) AppleWebKit/537.36 (KHTML, like Gecko) Chrome/91.0.4472.114 Safari/537.36",1440,789,1440,900,,,,,,,,3,4.2761,0.409445394,-0.40846951,1,0,0,next_trial_button,0,5,5,79,1,landscape,visiblesun,yesclouds,9,"1028.5714285714284,500",
,,,,,,,de,de,de,f,24,,2021-08-09_14h41.38.464,online_experiment,2021.1.4,MacIntel,60.0024001,FALSE,,"Mozilla/5.0 (Macintosh; Intel Mac OS X 10_15_7) AppleWebKit/537.36 (KHTML, like Gecko) Chrome/91.0.4472.114 Safari/537.36",1440,789,1440,900,,,,,,,,4,3.435,0.377684191,-0.4322956,1,0,0,next_trial_button,0,6,6,69,1,landscape,invisiblesun,yesclouds,8,"750,500",
,,,,,,,de,de,de,f,24,,2021-08-09_14h41.38.464,online_experiment,2021.1.4,MacIntel,60.0024001,FALSE,,"Mozilla/5.0 (Macintosh; Intel Mac OS X 10_15_7) AppleWebKit/537.36 (KHTML, like Gecko) Chrome/91.0.4472.114 Safari/537.36",1440,789,1440,900,,,,,,,,2,2.2627,0.364667426,-0.413082547,1,0,0,next_trial_button,0,7,7,60,1,landscape,invisiblesun,noclouds,7,"666.7268134247564,500",
,,,,,,,de,de,de,f,24,,2021-08-09_14h41.38.464,online_experiment,2021.1.4,MacIntel,60.0024001,FALSE,,"Mozilla/5.0 (Macintosh; Intel Mac OS X 10_15_7) AppleWebKit/537.36 (KHTML, like Gecko) Chrome/91.0.4472.114 Safari/537.36",1440,789,1440,900,,,,,,,,3,2.8458,0.35067003,-0.428474392,1,0,0,next_trial_button,0,8,8,38,1,landscape,visiblesun,noclouds,4,"733.3333333333333,500",
,,,,,,,de,de,de,f,24,,2021-08-09_14h41.38.464,online_experiment,2021.1.4,MacIntel,60.0024001,FALSE,,"Mozilla/5.0 (Macintosh; Intel Mac OS X 10_15_7) AppleWebKit/537.36 (KHTML, like Gecko) Chrome/91.0.4472.114 Safari/537.36",1440,789,1440,900,,,,,,,,2,1.8805,0.341969944,-0.432565918,1,0,0,next_trial_button,0,9,9,68,1,landscape,invisiblesun,noclouds,8,"666.6666666666666,500",
,,,,,,,de,de,de,f,24,,2021-08-09_14h41.38.464,online_experiment,2021.1.4,MacIntel,60.0024001,FALSE,,"Mozilla/5.0 (Macintosh; Intel Mac OS X 10_15_7) AppleWebKit/537.36 (KHTML, like Gecko) Chrome/91.0.4472.114 Safari/537.36",1440,789,1440,900,,,,,,,,6,3.7342,0.387053087,-0.411064182,1,0,0,next_trial_button,0,10,10,21,1,landscape,invisiblesun,yesclouds,2,"750,500",
,,,,,,,de,de,de,f,24,,2021-08-09_14h41.38.464,online_experiment,2021.1.4,MacIntel,60.0024001,FALSE,,"Mozilla/5.0 (Macintosh; Intel Mac OS X 10_15_7) AppleWebKit/537.36 (KHTML, like Gecko) Chrome/91.0.4472.114 Safari/537.36",1440,789,1440,900,,,,,,,,4,2.7469,0.422232395,-0.427371487,1,0,0,next_trial_button,0,11,11,54,1,landscape,visiblesun,noclouds,6,"695.0043821209465,500",
,,,,,,,de,de,de,f,24,,2021-08-09_14h41.38.464,online_experiment,2021.1.4,MacIntel,60.0024001,FALSE,,"Mozilla/5.0 (Macintosh; Intel Mac OS X 10_15_7) AppleWebKit/537.36 (KHTML, like Gecko) Chrome/91.0.4472.114 Safari/537.36",1440,789,1440,900,,,,,,,,3,2.0167,0.453120524,-0.429221734,1,0,0,next_trial_button,0,12,12,4,1,landscape,invisiblesun,noclouds,0,"1276.9171185127807,500",
,,,,,,,de,de,de,f,24,,2021-08-09_14h41.38.464,online_experiment,2021.1.4,MacIntel,60.0024001,FALSE,,"Mozilla/5.0 (Macintosh; Intel Mac OS X 10_15_7) AppleWebKit/537.36 (KHTML, like Gecko) Chrome/91.0.4472.114 Safari/537.36",1440,789,1440,900,,,,,,,,6,4.8624,0.298626845,-0.411832411,1,0,0,next_trial_button,0,13,13,15,1,landscape,visiblesun,yesclouds,1,"333.3333333333333,500",
,,,,,,,de,de,de,f,24,,2021-08-09_14h41.38.464,online_experiment,2021.1.4,MacIntel,60.0024001,FALSE,,"Mozilla/5.0 (Macintosh; Intel Mac OS X 10_15_7) AppleWebKit/537.36 (KHTML, like Gecko) Chrome/91.0.4472.114 Safari/537.36",1440,789,1440,900,,,,,,,,3,2.6948,0.320681017,-0.426820407,1,0,0,next_trial_button,0,14,14,56,1,beach,invisiblesun,noclouds,7,"1028.5714285714284,500",
,,,,,,,de,de,de,f,24,,2021-08-09_14h41.38.464,online_experiment,2021.1.4,MacIntel,60.0024001,FALSE,,"Mozilla/5.0 (Macintosh; Intel Mac OS X 10_15_7) AppleWebKit/537.36 (KHTML, like Gecko) Chrome/91.0.4472.114 Safari/537.36",1440,789,1440,900,,,,,,,,6,2.1285,0.387461344,-0.430579427,1,0,0,next_trial_button,0,15,15,33,1,beach,invisiblesun,yesclouds,4,"751.5473032714411,500",
,,,,,,,de,de,de,f,24,,2021-08-09_14h41.38.464,online_experiment,2021.1.4,MacIntel,60.0024001,FALSE,,"Mozilla/5.0 (Macintosh; Intel Mac OS X 10_15_7) AppleWebKit/537.36 (KHTML, like Gecko) Chrome/91.0.4472.114 Safari/537.36",1440,789,1440,900,,,,,,,,8,3.7806,0.470053982,-0.406108941,1,0,0,next_trial_button,0,16,16,45,1,landscape,invisiblesun,yesclouds,5,"749.6251874062968,500",
,,,,,,,de,de,de,f,24,,2021-08-09_14h41.38.464,online_experiment,2021.1.4,MacIntel,60.0024001,FALSE,,"Mozilla/5.0 (Macintosh; Intel Mac OS X 10_15_7) AppleWebKit/537.36 (KHTML, like Gecko) Chrome/91.0.4472.114 Safari/537.36",1440,789,1440,900,,,,,,,,4,2.5638,0.415532769,-0.425427721,1,0,0,next_trial_button,0,17,17,53,1,landscape,invisiblesun,yesclouds,6,"750.0695023630803,500",
,,,,,,,de,de,de,f,24,,2021-08-09_14h41.38.464,online_experiment,2021.1.4,MacIntel,60.0024001,FALSE,,"Mozilla/5.0 (Macintosh; Intel Mac OS X 10_15_7) AppleWebKit/537.36 (KHTML, like Gecko) Chrome/91.0.4472.114 Safari/537.36",1440,789,1440,900,,,,,,,,3,5.0646,0.329571533,-0.405872599,1,0,0,next_trial_button,0,18,18,24,1,beach,invisiblesun,noclouds,3,"750.089190153407,500",
,,,,,,,de,de,de,f,24,,2021-08-09_14h41.38.464,online_experiment,2021.1.4,MacIntel,60.0024001,FALSE,,"Mozilla/5.0 (Macintosh; Intel Mac OS X 10_15_7) AppleWebKit/537.36 (KHTML, like Gecko) Chrome/91.0.4472.114 Safari/537.36",1440,789,1440,900,,,,,,,,5,2.2776,0.318732096,-0.406887817,1,0,0,next_trial_button,0,19,19,50,1,beach,visiblesun,noclouds,6,"666.6666666666666,500",
,,,,,,,de,de,de,f,24,,2021-08-09_14h41.38.464,online_experiment,2021.1.4,MacIntel,60.0024001,FALSE,,"Mozilla/5.0 (Macintosh; Intel Mac OS X 10_15_7) AppleWebKit/537.36 (KHTML, like Gecko) Chrome/91.0.4472.114 Safari/537.36",1440,789,1440,900,,,,,,,,3,2.1454,0.306443617,-0.404506497,1,0,0,next_trial_button,0,20,20,55,1,landscape,visiblesun,yesclouds,6,"749.8819083608881,500",
,,,,,,,de,de,de,f,24,,2021-08-09_14h41.38.464,online_experiment,2021.1.4,MacIntel,60.0024001,FALSE,,"Mozilla/5.0 (Macintosh; Intel Mac OS X 10_15_7) AppleWebKit/537.36 (KHTML, like Gecko) Chrome/91.0.4472.114 Safari/537.36",1440,789,1440,900,,,,,,,,2,2.4904,0.372956814,-0.414082709,1,0,0,next_trial_button,0,21,21,48,1,beach,invisiblesun,noclouds,6,"1028.5714285714284,500",
,,,,,,,de,de,de,f,24,,2021-08-09_14h41.38.464,online_experiment,2021.1.4,MacIntel,60.0024001,FALSE,,"Mozilla/5.0 (Macintosh; Intel Mac OS X 10_15_7) AppleWebKit/537.36 (KHTML, like Gecko) Chrome/91.0.4472.114 Safari/537.36",1440,789,1440,900,,,,,,,,4,3.0267,0.386318631,-0.406073676,1,0,0,next_trial_button,0,22,22,44,1,landscape,invisiblesun,noclouds,5,"666.6666666666666,500",
,,,,,,,de,de,de,f,24,,2021-08-09_14h41.38.464,online_experiment,2021.1.4,MacIntel,60.0024001,FALSE,,"Mozilla/5.0 (Macintosh; Intel Mac OS X 10_15_7) AppleWebKit/537.36 (KHTML, like Gecko) Chrome/91.0.4472.114 Safari/537.36",1440,789,1440,900,,,,,,,,8,3.2315,0.334383002,-0.403335639,1,0,0,next_trial_button,0,23,23,75,1,beach,visiblesun,yesclouds,9,"1029.6010296010297,500",
,,,,,,,de,de,de,f,24,,2021-08-09_14h41.38.464,online_experiment,2021.1.4,MacIntel,60.0024001,FALSE,,"Mozilla/5.0 (Macintosh; Intel Mac OS X 10_15_7) AppleWebKit/537.36 (KHTML, like Gecko) Chrome/91.0.4472.114 Safari/537.36",1440,789,1440,900,,,,,,,,3,6.531,0.298404066,-0.413462728,1,0,0,next_trial_button,0,24,24,77,1,landscape,invisiblesun,yesclouds,9,"888.8888888888888,500",
,,,,,,,de,de,de,f,24,,2021-08-09_14h41.38.464,online_experiment,2021.1.4,MacIntel,60.0024001,FALSE,,"Mozilla/5.0 (Macintosh; Intel Mac OS X 10_15_7) AppleWebKit/537.36 (KHTML, like Gecko) Chrome/91.0.4472.114 Safari/537.36",1440,789,1440,900,,,,,,,,5,2.2928,0.326156141,-0.430602349,1,0,0,next_trial_button,0,25,25,11,1,beach,visiblesun,yesclouds,1,"989.8132427843803,500",
,,,,,,,de,de,de,f,24,,2021-08-09_14h41.38.464,online_experiment,2021.1.4,MacIntel,60.0024001,FALSE,,"Mozilla/5.0 (Macintosh; Intel Mac OS X 10_15_7) AppleWebKit/537.36 (KHTML, like Gecko) Chrome/91.0.4472.114 Safari/537.36",1440,789,1440,900,,,,,,,,7,2.9629,0.374215902,-0.419651693,1,0,0,next_trial_button,0,26,26,61,1,landscape,invisiblesun,yesclouds,7,"500,500",
,,,,,,,de,de,de,f,24,,2021-08-09_14h41.38.464,online_experiment,2021.1.4,MacIntel,60.0024001,FALSE,,"Mozilla/5.0 (Macintosh; Intel Mac OS X 10_15_7) AppleWebKit/537.36 (KHTML, like Gecko) Chrome/91.0.4472.114 Safari/537.36",1440,789,1440,900,,,,,,,,7,1.6831,0.409318983,-0.412834337,1,0,0,next_trial_button,0,27,27,19,1,beach,visiblesun,yesclouds,2,"770.1393095093882,500",
,,,,,,,de,de,de,f,24,,2021-08-09_14h41.38.464,online_experiment,2021.1.4,MacIntel,60.0024001,FALSE,,"Mozilla/5.0 (Macintosh; Intel Mac OS X 10_15_7) AppleWebKit/537.36 (KHTML, like Gecko) Chrome/91.0.4472.114 Safari/537.36",1440,789,1440,900,,,,,,,,5,2.2817,0.335812174,-0.401022881,1,0,0,next_trial_button,0,28,28,12,1,landscape,invisiblesun,noclouds,1,"666.6666666666666,500",
,,,,,,,de,de,de,f,24,,2021-08-09_14h41.38.464,online_experiment,2021.1.4,MacIntel,60.0024001,FALSE,,"Mozilla/5.0 (Macintosh; Intel Mac OS X 10_15_7) AppleWebKit/537.36 (KHTML, like Gecko) Chrome/91.0.4472.114 Safari/537.36",1440,789,1440,900,,,,,,,,8,1.9092,0.371374376,-0.419495917,1,0,0,next_trial_button,0,29,29,49,1,beach,invisiblesun,yesclouds,6,"858.4474885844749,500",
,,,,,,,de,de,de,f,24,,2021-08-09_14h41.38.464,online_experiment,2021.1.4,MacIntel,60.0024001,FALSE,,"Mozilla/5.0 (Macintosh; Intel Mac OS X 10_15_7) AppleWebKit/537.36 (KHTML, like Gecko) Chrome/91.0.4472.114 Safari/537.36",1440,789,1440,900,,,,,,,,5,1.8659,0.451672906,-0.414914483,1,0,0,next_trial_button,0,30,30,66,1,beach,visiblesun,noclouds,8,"1028.5714285714284,500",
,,,,,,,de,de,de,f,24,,2021-08-09_14h41.38.464,online_experiment,2021.1.4,MacIntel,60.0024001,FALSE,,"Mozilla/5.0 (Macintosh; Intel Mac OS X 10_15_7) AppleWebKit/537.36 (KHTML, like Gecko) Chrome/91.0.4472.114 Safari/537.36",1440,789,1440,900,,,,,,,,4,2.5115,0.333218384,-0.405889757,1,0,0,next_trial_button,0,31,31,14,1,landscape,visiblesun,noclouds,1,"745.9919839679359,500",
,,,,,,,de,de,de,f,24,,2021-08-09_14h41.38.464,online_experiment,2021.1.4,MacIntel,60.0024001,FALSE,,"Mozilla/5.0 (Macintosh; Intel Mac OS X 10_15_7) AppleWebKit/537.36 (KHTML, like Gecko) Chrome/91.0.4472.114 Safari/537.36",1440,789,1440,900,,,,,,,,5,7.1819,0.385208062,-0.392564087,1,0,0,next_trial_button,0,32,32,57,1,beach,invisiblesun,yesclouds,7,"749.707488299532,500",
,,,,,,,de,de,de,f,24,,2021-08-09_14h41.38.464,online_experiment,2021.1.4,MacIntel,60.0024001,FALSE,,"Mozilla/5.0 (Macintosh; Intel Mac OS X 10_15_7) AppleWebKit/537.36 (KHTML, like Gecko) Chrome/91.0.4472.114 Safari/537.36",1440,789,1440,900,,,,,,,,3,1.9256,0.334387817,-0.419265272,1,0,0,next_trial_button,0,33,33,2,1,beach,visiblesun,noclouds,0,"375,500",
,,,,,,,de,de,de,f,24,,2021-08-09_14h41.38.464,online_experiment,2021.1.4,MacIntel,60.0024001,FALSE,,"Mozilla/5.0 (Macintosh; Intel Mac OS X 10_15_7) AppleWebKit/537.36 (KHTML, like Gecko) Chrome/91.0.4472.114 Safari/537.36",1440,789,1440,900,,,,,,,,7,2.5807,0.359890951,-0.423054538,1,0,0,next_trial_button,0,34,34,16,1,beach,invisiblesun,noclouds,2,"752.8089887640449,500",
,,,,,,,de,de,de,f,24,,2021-08-09_14h41.38.464,online_experiment,2021.1.4,MacIntel,60.0024001,FALSE,,"Mozilla/5.0 (Macintosh; Intel Mac OS X 10_15_7) AppleWebKit/537.36 (KHTML, like Gecko) Chrome/91.0.4472.114 Safari/537.36",1440,789,1440,900,,,,,,,,5,1.8807,0.353096246,-0.399102376,1,0,0,next_trial_button,0,35,35,18,1,beach,visiblesun,noclouds,2,"666.6666666666666,500",
,,,,,,,de,de,de,f,24,,2021-08-09_14h41.38.464,online_experiment,2021.1.4,MacIntel,60.0024001,FALSE,,"Mozilla/5.0 (Macintosh; Intel Mac OS X 10_15_7) AppleWebKit/537.36 (KHTML, like Gecko) Chrome/91.0.4472.114 Safari/537.36",1440,789,1440,900,,,,,,,,3,2.2456,0.42233195,-0.408018188,1,0,0,next_trial_button,0,36,36,71,1,landscape,visiblesun,yesclouds,8,"666.6666666666666,500",
,,,,,,,de,de,de,f,24,,2021-08-09_14h41.38.464,online_experiment,2021.1.4,MacIntel,60.0024001,FALSE,,"Mozilla/5.0 (Macintosh; Intel Mac OS X 10_15_7) AppleWebKit/537.36 (KHTML, like Gecko) Chrome/91.0.4472.114 Safari/537.36",1440,789,1440,900,,,,,,,,5,1.8989,0.361189507,-0.416716173,1,0,0,next_trial_button,0,37,37,10,1,beach,visiblesun,noclouds,1,"747.0261697065821,500",
,,,,,,,de,de,de,f,24,,2021-08-09_14h41.38.464,online_experiment,2021.1.4,MacIntel,60.0024001,FALSE,,"Mozilla/5.0 (Macintosh; Intel Mac OS X 10_15_7) AppleWebKit/537.36 (KHTML, like Gecko) Chrome/91.0.4472.114 Safari/537.36",1440,789,1440,900,,,,,,,,5,1.6965,0.319907159,-0.430026991,1,0,0,next_trial_button,0,38,38,9,1,beach,invisiblesun,yesclouds,1,"750,500",
,,,,,,,de,de,de,f,24,,2021-08-09_14h41.38.464,online_experiment,2021.1.4,MacIntel,60.0024001,FALSE,,"Mozilla/5.0 (Macintosh; Intel Mac OS X 10_15_7) AppleWebKit/537.36 (KHTML, like Gecko) Chrome/91.0.4472.114 Safari/537.36",1440,789,1440,900,,,,,,,,2,3.6459,0.455194227,-0.427105645,1,0,0,next_trial_button,0,39,39,22,1,landscape,visiblesun,noclouds,2,"749.3333333333333,500",
,,,,,,,de,de,de,f,24,,2021-08-09_14h41.38.464,online_experiment,2021.1.4,MacIntel,60.0024001,FALSE,,"Mozilla/5.0 (Macintosh; Intel Mac OS X 10_15_7) AppleWebKit/537.36 (KHTML, like Gecko) Chrome/91.0.4472.114 Safari/537.36",1440,789,1440,900,,,,,,,,1,2.5379,0.355361057,-0.412793037,1,0,0,next_trial_button,0,40,40,32,1,beach,invisiblesun,noclouds,4,"750,500",
,,,,,,,de,de,de,f,24,,2021-08-09_14h41.38.464,online_experiment,2021.1.4,MacIntel,60.0024001,FALSE,,"Mozilla/5.0 (Macintosh; Intel Mac OS X 10_15_7) AppleWebKit/537.36 (KHTML, like Gecko) Chrome/91.0.4472.114 Safari/537.36",1440,789,1440,900,,,,,,,,5,2.2263,0.376523709,-0.385301446,1,0,0,next_trial_button,0,41,41,64,1,beach,invisiblesun,noclouds,8,"1028.5714285714284,500",
,,,,,,,de,de,de,f,24,,2021-08-09_14h41.38.464,online_experiment,2021.1.4,MacIntel,60.0024001,FALSE,,"Mozilla/5.0 (Macintosh; Intel Mac OS X 10_15_7) AppleWebKit/537.36 (KHTML, like Gecko) Chrome/91.0.4472.114 Safari/537.36",1440,789,1440,900,,,,,,,,6,1.8981,0.408239204,-0.409902683,1,0,0,next_trial_button,0,42,42,34,1,beach,visiblesun,noclouds,4,"749.6251874062968,500",
,,,,,,,de,de,de,f,24,,2021-08-09_14h41.38.464,online_experiment,2021.1.4,MacIntel,60.0024001,FALSE,,"Mozilla/5.0 (Macintosh; Intel Mac OS X 10_15_7) AppleWebKit/537.36 (KHTML, like Gecko) Chrome/91.0.4472.114 Safari/537.36",1440,789,1440,900,,,,,,,,4,1.9467,0.420998671,-0.404358385,1,0,0,next_trial_button,0,43,43,8,1,beach,invisiblesun,noclouds,1,"1215.1898734177216,500",
,,,,,,,de,de,de,f,24,,2021-08-09_14h41.38.464,online_experiment,2021.1.4,MacIntel,60.0024001,FALSE,,"Mozilla/5.0 (Macintosh; Intel Mac OS X 10_15_7) AppleWebKit/537.36 (KHTML, like Gecko) Chrome/91.0.4472.114 Safari/537.36",1440,789,1440,900,,,,,,,,1,1.9801,0.482779677,-0.402216797,1,0,0,next_trial_button,0,44,44,76,1,landscape,invisiblesun,noclouds,9,"1056.6037735849056,500",
,,,,,,,de,de,de,f,24,,2021-08-09_14h41.38.464,online_experiment,2021.1.4,MacIntel,60.0024001,FALSE,,"Mozilla/5.0 (Macintosh; Intel Mac OS X 10_15_7) AppleWebKit/537.36 (KHTML, like Gecko) Chrome/91.0.4472.114 Safari/537.36",1440,789,1440,900,,,,,,,,3,4.6467,0.304893256,-0.404707981,1,0,0,next_trial_button,0,45,45,72,1,beach,invisiblesun,noclouds,9,"888.8888888888888,500",
,,,,,,,de,de,de,f,24,,2021-08-09_14h41.38.464,online_experiment,2021.1.4,MacIntel,60.0024001,FALSE,,"Mozilla/5.0 (Macintosh; Intel Mac OS X 10_15_7) AppleWebKit/537.36 (KHTML, like Gecko) Chrome/91.0.4472.114 Safari/537.36",1440,789,1440,900,,,,,,,,4,2.511,0.330811225,-0.421645847,1,0,0,next_trial_button,0,46,46,25,1,beach,invisiblesun,yesclouds,3,"750.4690431519699,500",
,,,,,,,de,de,de,f,24,,2021-08-09_14h41.38.464,online_experiment,2021.1.4,MacIntel,60.0024001,FALSE,,"Mozilla/5.0 (Macintosh; Intel Mac OS X 10_15_7) AppleWebKit/537.36 (KHTML, like Gecko) Chrome/91.0.4472.114 Safari/537.36",1440,789,1440,900,,,,,,,,4,2.0634,0.460504693,-0.399286974,1,0,0,next_trial_button,0,47,47,26,1,beach,visiblesun,noclouds,3,"888.8888888888888,500",
,,,,,,,de,de,de,f,24,,2021-08-09_14h41.38.464,online_experiment,2021.1.4,MacIntel,60.0024001,FALSE,,"Mozilla/5.0 (Macintosh; Intel Mac OS X 10_15_7) AppleWebKit/537.36 (KHTML, like Gecko) Chrome/91.0.4472.114 Safari/537.36",1440,789,1440,900,,,,,,,,4,2.093,0.315780572,-0.40767117,1,0,0,next_trial_button,0,48,48,73,1,beach,invisiblesun,yesclouds,9,"1028.5714285714284,500",
,,,,,,,de,de,de,f,24,,2021-08-09_14h41.38.464,online_experiment,2021.1.4,MacIntel,60.0024001,FALSE,,"Mozilla/5.0 (Macintosh; Intel Mac OS X 10_15_7) AppleWebKit/537.36 (KHTML, like Gecko) Chrome/91.0.4472.114 Safari/537.36",1440,789,1440,900,,,,,,,,2,1.512,0.374740668,-0.431289469,1,0,0,next_trial_button,0,49,49,5,1,landscape,invisiblesun,yesclouds,0,"750.4690431519699,500",
,,,,,,,de,de,de,f,24,,2021-08-09_14h41.38.464,online_experiment,2021.1.4,MacIntel,60.0024001,FALSE,,"Mozilla/5.0 (Macintosh; Intel Mac OS X 10_15_7) AppleWebKit/537.36 (KHTML, like Gecko) Chrome/91.0.4472.114 Safari/537.36",1440,789,1440,900,,,,,,,,1,1.6475,0.514514296,-0.442619086,1,0,0,next_trial_button,0,50,50,30,1,landscape,visiblesun,noclouds,3,"346.3035019455253,500",
,,,,,,,de,de,de,f,24,,2021-08-09_14h41.38.464,online_experiment,2021.1.4,MacIntel,60.0024001,FALSE,,"Mozilla/5.0 (Macintosh; Intel Mac OS X 10_15_7) AppleWebKit/537.36 (KHTML, like Gecko) Chrome/91.0.4472.114 Safari/537.36",1440,789,1440,900,,,,,,,,3,7.0976,0.330003662,-0.412687039,1,0,0,next_trial_button,0,51,51,78,1,landscape,visiblesun,noclouds,9,"666.6666666666666,500",
,,,,,,,de,de,de,f,24,,2021-08-09_14h41.38.464,online_experiment,2021.1.4,MacIntel,60.0024001,FALSE,,"Mozilla/5.0 (Macintosh; Intel Mac OS X 10_15_7) AppleWebKit/537.36 (KHTML, like Gecko) Chrome/91.0.4472.114 Safari/537.36",1440,789,1440,900,,,,,,,,3,3.3126,0.349933133,-0.386210395,1,0,0,next_trial_button,0,52,52,40,1,beach,invisiblesun,noclouds,5,"1028.5714285714284,500",
,,,,,,,de,de,de,f,24,,2021-08-09_14h41.38.464,online_experiment,2021.1.4,MacIntel,60.0024001,FALSE,,"Mozilla/5.0 (Macintosh; Intel Mac OS X 10_15_7) AppleWebKit/537.36 (KHTML, like Gecko) Chrome/91.0.4472.114 Safari/537.36",1440,789,1440,900,,,,,,,,5,2.5663,0.352276883,-0.401915148,1,0,0,next_trial_button,0,53,53,59,1,beach,visiblesun,yesclouds,7,"888.9689978370584,500",
,,,,,,,de,de,de,f,24,,2021-08-09_14h41.38.464,online_experiment,2021.1.4,MacIntel,60.0024001,FALSE,,"Mozilla/5.0 (Macintosh; Intel Mac OS X 10_15_7) AppleWebKit/537.36 (KHTML, like Gecko) Chrome/91.0.4472.114 Safari/537.36",1440,789,1440,900,,,,,,,,4,3.764,0.388535428,-0.435888062,1,0,0,next_trial_button,0,54,54,3,1,beach,visiblesun,yesclouds,0,"1152.5122276567363,500",
,,,,,,,de,de,de,f,24,,2021-08-09_14h41.38.464,online_experiment,2021.1.4,MacIntel,60.0024001,FALSE,,"Mozilla/5.0 (Macintosh; Intel Mac OS X 10_15_7) AppleWebKit/537.36 (KHTML, like Gecko) Chrome/91.0.4472.114 Safari/537.36",1440,789,1440,900,,,,,,,,5,2.3625,0.322276204,-0.424206407,1,0,0,next_trial_button,0,55,55,42,1,beach,visiblesun,noclouds,5,"834.4594594594595,500",
,,,,,,,de,de,de,f,24,,2021-08-09_14h41.38.464,online_experiment,2021.1.4,MacIntel,60.0024001,FALSE,,"Mozilla/5.0 (Macintosh; Intel Mac OS X 10_15_7) AppleWebKit/537.36 (KHTML, like Gecko) Chrome/91.0.4472.114 Safari/537.36",1440,789,1440,900,,,,,,,,6,3.1769,0.384544271,-0.437232802,1,0,0,next_trial_button,0,56,56,63,1,landscape,visiblesun,yesclouds,7,"331.94444444444446,500",
,,,,,,,de,de,de,f,24,,2021-08-09_14h41.38.464,online_experiment,2021.1.4,MacIntel,60.0024001,FALSE,,"Mozilla/5.0 (Macintosh; Intel Mac OS X 10_15_7) AppleWebKit/537.36 (KHTML, like Gecko) Chrome/91.0.4472.114 Safari/537.36",1440,789,1440,900,,,,,,,,7,2.4141,0.412105713,-0.425485772,1,0,0,next_trial_button,0,57,57,27,1,beach,visiblesun,yesclouds,3,"752.8089887640449,500",
,,,,,,,de,de,de,f,24,,2021-08-09_14h41.38.464,online_experiment,2021.1.4,MacIntel,60.0024001,FALSE,,"Mozilla/5.0 (Macintosh; Intel Mac OS X 10_15_7) AppleWebKit/537.36 (KHTML, like Gecko) Chrome/91.0.4472.114 Safari/537.36",1440,789,1440,900,,,,,,,,3,1.8654,0.415344103,-0.411583184,1,0,0,next_trial_button,0,58,58,0,1,beach,invisiblesun,noclouds,0,"750,500",
,,,,,,,de,de,de,f,24,,2021-08-09_14h41.38.464,online_experiment,2021.1.4,MacIntel,60.0024001,FALSE,,"Mozilla/5.0 (Macintosh; Intel Mac OS X 10_15_7) AppleWebKit/537.36 (KHTML, like Gecko) Chrome/91.0.4472.114 Safari/537.36",1440,789,1440,900,,,,,,,,6,6.4817,0.349127062,-0.427097575,1,0,0,next_trial_button,0,59,59,29,1,landscape,invisiblesun,yesclouds,3,"749.8660953401178,500",
,,,,,,,de,de,de,f,24,,2021-08-09_14h41.38.464,online_experiment,2021.1.4,MacIntel,60.0024001,FALSE,,"Mozilla/5.0 (Macintosh; Intel Mac OS X 10_15_7) AppleWebKit/537.36 (KHTML, like Gecko) Chrome/91.0.4472.114 Safari/537.36",1440,789,1440,900,,,,,,,,4,2.5764,0.319629178,-0.431039157,1,0,0,next_trial_button,0,60,60,70,1,landscape,visiblesun,noclouds,8,"666.6666666666666,500",
,,,,,,,de,de,de,f,24,,2021-08-09_14h41.38.464,online_experiment,2021.1.4,MacIntel,60.0024001,FALSE,,"Mozilla/5.0 (Macintosh; Intel Mac OS X 10_15_7) AppleWebKit/537.36 (KHTML, like Gecko) Chrome/91.0.4472.114 Safari/537.36",1440,789,1440,900,,,,,,,,3,3.3181,0.348296441,-0.435145128,1,0,0,next_trial_button,0,61,61,74,1,beach,visiblesun,noclouds,9,"1028.5714285714284,500",
,,,,,,,de,de,de,f,24,,2021-08-09_14h41.38.464,online_experiment,2021.1.4,MacIntel,60.0024001,FALSE,,"Mozilla/5.0 (Macintosh; Intel Mac OS X 10_15_7) AppleWebKit/537.36 (KHTML, like Gecko) Chrome/91.0.4472.114 Safari/537.36",1440,789,1440,900,,,,,,,,5,2.3973,0.382759874,-0.410842489,1,0,0,next_trial_button,0,62,62,67,1,beach,visiblesun,yesclouds,8,"748.1481481481482,500",
,,,,,,,de,de,de,f,24,,2021-08-09_14h41.38.464,online_experiment,2021.1.4,MacIntel,60.0024001,FALSE,,"Mozilla/5.0 (Macintosh; Intel Mac OS X 10_15_7) AppleWebKit/537.36 (KHTML, like Gecko) Chrome/91.0.4472.114 Safari/537.36",1440,789,1440,900,,,,,,,,4,3.7319,0.316822645,-0.430654568,1,0,0,next_trial_button,0,63,63,43,1,beach,visiblesun,yesclouds,5,"750,500",
,,,,,,,de,de,de,f,24,,2021-08-09_14h41.38.464,online_experiment,2021.1.4,MacIntel,60.0024001,FALSE,,"Mozilla/5.0 (Macintosh; Intel Mac OS X 10_15_7) AppleWebKit/537.36 (KHTML, like Gecko) Chrome/91.0.4472.114 Safari/537.36",1440,789,1440,900,,,,,,,,2,2.066,0.343157145,-0.437367757,1,0,0,next_trial_button,0,64,64,13,1,landscape,invisiblesun,yesclouds,1,"783.1192660550458,500",
,,,,,,,de,de,de,f,24,,2021-08-09_14h41.38.464,online_experiment,2021.1.4,MacIntel,60.0024001,FALSE,,"Mozilla/5.0 (Macintosh; Intel Mac OS X 10_15_7) AppleWebKit/537.36 (KHTML, like Gecko) Chrome/91.0.4472.114 Safari/537.36",1440,789,1440,900,,,,,,,,5,2.0804,0.351740044,-0.413262329,1,0,0,next_trial_button,0,65,65,35,1,beach,visiblesun,yesclouds,4,"750,500",
,,,,,,,de,de,de,f,24,,2021-08-09_14h41.38.464,online_experiment,2021.1.4,MacIntel,60.0024001,FALSE,,"Mozilla/5.0 (Macintosh; Intel Mac OS X 10_15_7) AppleWebKit/537.36 (KHTML, like Gecko) Chrome/91.0.4472.114 Safari/537.36",1440,789,1440,900,,,,,,,,2,1.7783,0.442036947,-0.41981703,1,0,0,next_trial_button,0,66,66,23,1,landscape,visiblesun,yesclouds,2,"767.97829036635,500",
,,,,,,,de,de,de,f,24,,2021-08-09_14h41.38.464,online_experiment,2021.1.4,MacIntel,60.0024001,FALSE,,"Mozilla/5.0 (Macintosh; Intel Mac OS X 10_15_7) AppleWebKit/537.36 (KHTML, like Gecko) Chrome/91.0.4472.114 Safari/537.36",1440,789,1440,900,,,,,,,,4,2.0583,0.339834391,-0.411573419,1,0,0,next_trial_button,0,67,67,41,1,beach,invisiblesun,yesclouds,5,"1248.4394506866417,500",
,,,,,,,de,de,de,f,24,,2021-08-09_14h41.38.464,online_experiment,2021.1.4,MacIntel,60.0024001,FALSE,,"Mozilla/5.0 (Macintosh; Intel Mac OS X 10_15_7) AppleWebKit/537.36 (KHTML, like Gecko) Chrome/91.0.4472.114 Safari/537.36",1440,789,1440,900,,,,,,,,3,3.3474,0.336399061,-0.419583401,1,0,0,next_trial_button,0,68,68,39,1,landscape,visiblesun,yesclouds,4,"749.7656982193065,500",
,,,,,,,de,de,de,f,24,,2021-08-09_14h41.38.464,online_experiment,2021.1.4,MacIntel,60.0024001,FALSE,,"Mozilla/5.0 (Macintosh; Intel Mac OS X 10_15_7) AppleWebKit/537.36 (KHTML, like Gecko) Chrome/91.0.4472.114 Safari/537.36",1440,789,1440,900,,,,,,,,1,1.8152,0.368283285,-0.420703464,1,0,0,next_trial_button,0,69,69,7,1,landscape,visiblesun,yesclouds,0,"743.421052631579,500",
,,,,,,,de,de,de,f,24,,2021-08-09_14h41.38.464,online_experiment,2021.1.4,MacIntel,60.0024001,FALSE,,"Mozilla/5.0 (Macintosh; Intel Mac OS X 10_15_7) AppleWebKit/537.36 (KHTML, like Gecko) Chrome/91.0.4472.114 Safari/537.36",1440,789,1440,900,,,,,,,,5,3.1476,0.315181478,-0.414986911,1,0,0,next_trial_button,0,70,70,1,1,beach,invisiblesun,yesclouds,0,"666.6666666666666,500",
,,,,,,,de,de,de,f,24,,2021-08-09_14h41.38.464,online_experiment,2021.1.4,MacIntel,60.0024001,FALSE,,"Mozilla/5.0 (Macintosh; Intel Mac OS X 10_15_7) AppleWebKit/537.36 (KHTML, like Gecko) Chrome/91.0.4472.114 Safari/537.36",1440,789,1440,900,,,,,,,,5,2.1936,0.342567681,-0.417237278,1,0,0,next_trial_button,0,71,71,65,1,beach,invisiblesun,yesclouds,8,"750,500",
,,,,,,,de,de,de,f,24,,2021-08-09_14h41.38.464,online_experiment,2021.1.4,MacIntel,60.0024001,FALSE,,"Mozilla/5.0 (Macintosh; Intel Mac OS X 10_15_7) AppleWebKit/537.36 (KHTML, like Gecko) Chrome/91.0.4472.114 Safari/537.36",1440,789,1440,900,,,,,,,,6,4.7627,0.362306315,-0.431995511,1,0,0,next_trial_button,0,72,72,20,1,landscape,invisiblesun,noclouds,2,"755.192878338279,500",
,,,,,,,de,de,de,f,24,,2021-08-09_14h41.38.464,online_experiment,2021.1.4,MacIntel,60.0024001,FALSE,,"Mozilla/5.0 (Macintosh; Intel Mac OS X 10_15_7) AppleWebKit/537.36 (KHTML, like Gecko) Chrome/91.0.4472.114 Safari/537.36",1440,789,1440,900,,,,,,,,4,6.3269,0.426181098,-0.424641385,1,0,0,next_trial_button,0,73,73,51,1,beach,visiblesun,yesclouds,6,"657.1279916753382,500",
,,,,,,,de,de,de,f,24,,2021-08-09_14h41.38.464,online_experiment,2021.1.4,MacIntel,60.0024001,FALSE,,"Mozilla/5.0 (Macintosh; Intel Mac OS X 10_15_7) AppleWebKit/537.36 (KHTML, like Gecko) Chrome/91.0.4472.114 Safari/537.36",1440,789,1440,900,,,,,,,,5,2.5117,0.394524468,-0.434748535,1,0,0,next_trial_button,0,74,74,52,1,landscape,invisiblesun,noclouds,6,"666.6666666666666,500",
,,,,,,,de,de,de,f,24,,2021-08-09_14h41.38.464,online_experiment,2021.1.4,MacIntel,60.0024001,FALSE,,"Mozilla/5.0 (Macintosh; Intel Mac OS X 10_15_7) AppleWebKit/537.36 (KHTML, like Gecko) Chrome/91.0.4472.114 Safari/537.36",1440,789,1440,900,,,,,,,,5,2.6642,0.349916314,-0.448205499,1,0,0,next_trial_button,0,75,75,31,1,landscape,visiblesun,yesclouds,3,"638.0622837370242,500",
,,,,,,,de,de,de,f,24,,2021-08-09_14h41.38.464,online_experiment,2021.1.4,MacIntel,60.0024001,FALSE,,"Mozilla/5.0 (Macintosh; Intel Mac OS X 10_15_7) AppleWebKit/537.36 (KHTML, like Gecko) Chrome/91.0.4472.114 Safari/537.36",1440,789,1440,900,,,,,,,,2,1.9466,0.389441732,-0.423530409,1,0,0,next_trial_button,0,76,76,36,1,landscape,invisiblesun,noclouds,4,"281.25,500",
,,,,,,,de,de,de,f,24,,2021-08-09_14h41.38.464,online_experiment,2021.1.4,MacIntel,60.0024001,FALSE,,"Mozilla/5.0 (Macintosh; Intel Mac OS X 10_15_7) AppleWebKit/537.36 (KHTML, like Gecko) Chrome/91.0.4472.114 Safari/537.36",1440,789,1440,900,,,,,,,,2,2.5132,0.380601128,-0.404615953,1,0,0,next_trial_button,0,77,77,58,1,beach,visiblesun,noclouds,7,"1028.5714285714284,500",
,,,,,,,de,de,de,f,24,,2021-08-09_14h41.38.464,online_experiment,2021.1.4,MacIntel,60.0024001,FALSE,,"Mozilla/5.0 (Macintosh; Intel Mac OS X 10_15_7) AppleWebKit/537.36 (KHTML, like Gecko) Chrome/91.0.4472.114 Safari/537.36",1440,789,1440,900,,,,,,,,1,1.8143,0.295290934,-0.421376953,1,0,0,next_trial_button,0,78,78,28,1,landscape,invisiblesun,noclouds,3,"888.8888888888888,500",
,,,,,,,de,de,de,f,24,,2021-08-09_14h41.38.464,online_experiment,2021.1.4,MacIntel,60.0024001,FALSE,,"Mozilla/5.0 (Macintosh; Intel Mac OS X 10_15_7) AppleWebKit/537.36 (KHTML, like Gecko) Chrome/91.0.4472.114 Safari/537.36",1440,789,1440,900,,,,,,,,2,1.8163,0.380783691,-0.428264431,1,0,0,next_trial_button,0,79,79,46,1,landscape,visiblesun,noclouds,5,"750,500",
,,,,,,,de,de,de,f,24,,2021-08-09_14h41.38.464,online_experiment,2021.1.4,MacIntel,60.0024001,FALSE,,"Mozilla/5.0 (Macintosh; Intel Mac OS X 10_15_7) AppleWebKit/537.36 (KHTML, like Gecko) Chrome/91.0.4472.114 Safari/537.36",1440,789,1440,900,,,,,,,,,,,,,,,,,,,,,,,,,"750,500",342.6395
