language_mouse.x,language_mouse.y,language_mouse.leftButton,language_mouse.midButton,language_mouse.rightButton,language_mouse.time,language_mouse.clicked_name,nationality,mother_tongue,homeland,gender,age,email,date,expName,psychopyVersion,OS,frameRate,cancel_experiment,cancel_reasons,client_agent_information,windowWidth,windowHeight,xRes,yRes,start_exp_mouse.x,start_exp_mouse.y,start_exp_mouse.leftButton,start_exp_mouse.midButton,start_exp_mouse.rightButton,start_exp_mouse.time,start_exp_mouse.clicked_name,rating_slider.response,rating_slider.rt,next_trial_mouse.x,next_trial_mouse.y,next_trial_mouse.leftButton,next_trial_mouse.midButton,next_trial_mouse.rightButton,next_trial_mouse.clicked_name,trials.thisRepN,trials.thisTrialN,trials.thisN,trials.thisIndex,trials.ran,environment,sunVisibility,cloudVisibility,imageId,imgSize,globalClockTime
0.358426881,-0.254414679,1,0,0,1.222,gr_flag,gr,gr,gr,m,24,,2021-08-31_22h58.35.333,online_experiment,2021.1.4,Linux aarch64,60.20469597,FALSE,,"Mozilla/5.0 (X11; Linux x86_64) AppleWebKit/537.36 (KHTML, like Gecko) Chrome/92.0.4515.166 Safari/537.36",1648,3011,412,809,,,,,,,,,,,,,,,,,,,,,,,,,,
,,,,,,,gr,gr,gr,m,24,,2021-08-31_22h58.35.333,online_experiment,2021.1.4,Linux aarch64,60.20469597,FALSE,,"Mozilla/5.0 (X11; Linux x86_64) AppleWebKit/537.36 (KHTML, like Gecko) Chrome/92.0.4515.166 Safari/537.36",1648,3011,412,809,0.053186768,-0.394007562,1,0,0,9.7392,cont_gr,7,8.0661,0.381588093,-0.43531029,1,0,0,next_trial_button,0,0,0,33,1,beach,invisiblesun,yesclouds,4,"751.5473032714411,500",
,,,,,,,gr,gr,gr,m,24,,2021-08-31_22h58.35.333,online_experiment,2021.1.4,Linux aarch64,60.20469597,FALSE,,"Mozilla/5.0 (X11; Linux x86_64) AppleWebKit/537.36 (KHTML, like Gecko) Chrome/92.0.4515.166 Safari/537.36",1648,3011,412,809,,,,,,,,5,3.1836,0.38548901,-0.429559356,1,0,0,next_trial_button,0,1,1,1,1,beach,invisiblesun,yesclouds,0,"666.6666666666666,500",
,,,,,,,gr,gr,gr,m,24,,2021-08-31_22h58.35.333,online_experiment,2021.1.4,Linux aarch64,60.20469597,FALSE,,"Mozilla/5.0 (X11; Linux x86_64) AppleWebKit/537.36 (KHTML, like Gecko) Chrome/92.0.4515.166 Safari/537.36",1648,3011,412,809,,,,,,,,3,1.9718,0.380125249,-0.420671333,1,0,0,next_trial_button,0,2,2,11,1,beach,visiblesun,yesclouds,1,"989.8132427843803,500",
,,,,,,,gr,gr,gr,m,24,,2021-08-31_22h58.35.333,online_experiment,2021.1.4,Linux aarch64,60.20469597,FALSE,,"Mozilla/5.0 (X11; Linux x86_64) AppleWebKit/537.36 (KHTML, like Gecko) Chrome/92.0.4515.166 Safari/537.36",1648,3011,412,809,,,,,,,,4,1.8864,0.390608852,-0.400804242,1,0,0,next_trial_button,0,3,3,39,1,landscape,visiblesun,yesclouds,4,"749.7656982193065,500",
,,,,,,,gr,gr,gr,m,24,,2021-08-31_22h58.35.333,online_experiment,2021.1.4,Linux aarch64,60.20469597,FALSE,,"Mozilla/5.0 (X11; Linux x86_64) AppleWebKit/537.36 (KHTML, like Gecko) Chrome/92.0.4515.166 Safari/537.36",1648,3011,412,809,,,,,,,,3,1.715,0.364765723,-0.413874654,1,0,0,next_trial_button,0,4,4,56,1,beach,invisiblesun,noclouds,7,"1028.5714285714284,500",
,,,,,,,gr,gr,gr,m,24,,2021-08-31_22h58.35.333,online_experiment,2021.1.4,Linux aarch64,60.20469597,FALSE,,"Mozilla/5.0 (X11; Linux x86_64) AppleWebKit/537.36 (KHTML, like Gecko) Chrome/92.0.4515.166 Safari/537.36",1648,3011,412,809,,,,,,,,2,2.4545,0.38548901,-0.404463981,1,0,0,next_trial_button,0,5,5,30,1,landscape,visiblesun,noclouds,3,"346.3035019455253,500",
,,,,,,,gr,gr,gr,m,24,,2021-08-31_22h58.35.333,online_experiment,2021.1.4,Linux aarch64,60.20469597,FALSE,,"Mozilla/5.0 (X11; Linux x86_64) AppleWebKit/537.36 (KHTML, like Gecko) Chrome/92.0.4515.166 Safari/537.36",1648,3011,412,809,,,,,,,,5,2.0456,0.382563322,-0.408646519,1,0,0,next_trial_button,0,6,6,72,1,beach,invisiblesun,noclouds,9,"888.8888888888888,500",
,,,,,,,gr,gr,gr,m,24,,2021-08-31_22h58.35.333,online_experiment,2021.1.4,Linux aarch64,60.20469597,FALSE,,"Mozilla/5.0 (X11; Linux x86_64) AppleWebKit/537.36 (KHTML, like Gecko) Chrome/92.0.4515.166 Safari/537.36",1648,3011,412,809,,,,,,,,5,1.5246,0.384269937,-0.400804242,1,0,0,next_trial_button,0,7,7,47,1,landscape,visiblesun,yesclouds,5,"666.6666666666666,500",
,,,,,,,gr,gr,gr,m,24,,2021-08-31_22h58.35.333,online_experiment,2021.1.4,Linux aarch64,60.20469597,FALSE,,"Mozilla/5.0 (X11; Linux x86_64) AppleWebKit/537.36 (KHTML, like Gecko) Chrome/92.0.4515.166 Safari/537.36",1648,3011,412,809,,,,,,,,6,2.3333,0.394265777,-0.458837268,1,0,0,next_trial_button,0,8,8,14,1,landscape,visiblesun,noclouds,1,"745.9919839679359,500",
,,,,,,,gr,gr,gr,m,24,,2021-08-31_22h58.35.333,online_experiment,2021.1.4,Linux aarch64,60.20469597,FALSE,,"Mozilla/5.0 (X11; Linux x86_64) AppleWebKit/537.36 (KHTML, like Gecko) Chrome/92.0.4515.166 Safari/537.36",1648,3011,412,809,,,,,,,,2,1.9125,0.397435309,-0.421717079,1,0,0,next_trial_button,0,9,9,10,1,beach,visiblesun,noclouds,1,"747.0261697065821,500",
,,,,,,,gr,gr,gr,m,24,,2021-08-31_22h58.35.333,online_experiment,2021.1.4,Linux aarch64,60.20469597,FALSE,,"Mozilla/5.0 (X11; Linux x86_64) AppleWebKit/537.36 (KHTML, like Gecko) Chrome/92.0.4515.166 Safari/537.36",1648,3011,412,809,,,,,,,,2,1.8047,0.38548901,-0.416488796,1,0,0,next_trial_button,0,10,10,46,1,landscape,visiblesun,noclouds,5,"750,500",
,,,,,,,gr,gr,gr,m,24,,2021-08-31_22h58.35.333,online_experiment,2021.1.4,Linux aarch64,60.20469597,FALSE,,"Mozilla/5.0 (X11; Linux x86_64) AppleWebKit/537.36 (KHTML, like Gecko) Chrome/92.0.4515.166 Safari/537.36",1648,3011,412,809,,,,,,,,9,8.9787,0.397435309,-0.40498678,1,0,0,next_trial_button,0,11,11,37,1,landscape,invisiblesun,yesclouds,4,"669.4214876033058,500",
,,,,,,,gr,gr,gr,m,24,,2021-08-31_22h58.35.333,online_experiment,2021.1.4,Linux aarch64,60.20469597,FALSE,,"Mozilla/5.0 (X11; Linux x86_64) AppleWebKit/537.36 (KHTML, like Gecko) Chrome/92.0.4515.166 Safari/537.36",1648,3011,412,809,,,,,,,,6,5.4803,0.366716255,-0.419102937,1,0,0,next_trial_button,0,12,12,19,1,beach,visiblesun,yesclouds,2,"770.1393095093882,500",
,,,,,,,gr,gr,gr,m,24,,2021-08-31_22h58.35.333,online_experiment,2021.1.4,Linux aarch64,60.20469597,FALSE,,"Mozilla/5.0 (X11; Linux x86_64) AppleWebKit/537.36 (KHTML, like Gecko) Chrome/92.0.4515.166 Safari/537.36",1648,3011,412,809,,,,,,,,7,3.3141,0.394509621,-0.401849839,1,0,0,next_trial_button,0,13,13,67,1,beach,visiblesun,yesclouds,8,"748.1481481481482,500",
,,,,,,,gr,gr,gr,m,24,,2021-08-31_22h58.35.333,online_experiment,2021.1.4,Linux aarch64,60.20469597,FALSE,,"Mozilla/5.0 (X11; Linux x86_64) AppleWebKit/537.36 (KHTML, like Gecko) Chrome/92.0.4515.166 Safari/537.36",1648,3011,412,809,,,,,,,,6,2.0856,0.390121164,-0.427990812,1,0,0,next_trial_button,0,14,14,38,1,landscape,visiblesun,noclouds,4,"733.3333333333333,500",
,,,,,,,gr,gr,gr,m,24,,2021-08-31_22h58.35.333,online_experiment,2021.1.4,Linux aarch64,60.20469597,FALSE,,"Mozilla/5.0 (X11; Linux x86_64) AppleWebKit/537.36 (KHTML, like Gecko) Chrome/92.0.4515.166 Safari/537.36",1648,3011,412,809,,,,,,,,2,2.7668,0.390121164,-0.389302226,1,0,0,next_trial_button,0,15,15,53,1,landscape,invisiblesun,yesclouds,6,"750.0695023630803,500",
,,,,,,,gr,gr,gr,m,24,,2021-08-31_22h58.35.333,online_experiment,2021.1.4,Linux aarch64,60.20469597,FALSE,,"Mozilla/5.0 (X11; Linux x86_64) AppleWebKit/537.36 (KHTML, like Gecko) Chrome/92.0.4515.166 Safari/537.36",1648,3011,412,809,,,,,,,,5,2.7948,0.378418635,-0.444721111,1,0,0,next_trial_button,0,16,16,13,1,landscape,invisiblesun,yesclouds,1,"783.1192660550458,500",
,,,,,,,gr,gr,gr,m,24,,2021-08-31_22h58.35.333,online_experiment,2021.1.4,Linux aarch64,60.20469597,FALSE,,"Mozilla/5.0 (X11; Linux x86_64) AppleWebKit/537.36 (KHTML, like Gecko) Chrome/92.0.4515.166 Safari/537.36",1648,3011,412,809,,,,,,,,7,1.5793,0.390852549,-0.431650551,1,0,0,next_trial_button,0,17,17,63,1,landscape,visiblesun,yesclouds,7,"331.94444444444446,500",
,,,,,,,gr,gr,gr,m,24,,2021-08-31_22h58.35.333,online_experiment,2021.1.4,Linux aarch64,60.20469597,FALSE,,"Mozilla/5.0 (X11; Linux x86_64) AppleWebKit/537.36 (KHTML, like Gecko) Chrome/92.0.4515.166 Safari/537.36",1648,3011,412,809,,,,,,,,7,1.6656,0.378174865,-0.417534393,1,0,0,next_trial_button,0,18,18,24,1,beach,invisiblesun,noclouds,3,"750.089190153407,500",
,,,,,,,gr,gr,gr,m,24,,2021-08-31_22h58.35.333,online_experiment,2021.1.4,Linux aarch64,60.20469597,FALSE,,"Mozilla/5.0 (X11; Linux x86_64) AppleWebKit/537.36 (KHTML, like Gecko) Chrome/92.0.4515.166 Safari/537.36",1648,3011,412,809,,,,,,,,5,2.3852,0.388902238,-0.438970029,1,0,0,next_trial_button,0,19,19,28,1,landscape,invisiblesun,noclouds,3,"888.8888888888888,500",
,,,,,,,gr,gr,gr,m,24,,2021-08-31_22h58.35.333,online_experiment,2021.1.4,Linux aarch64,60.20469597,FALSE,,"Mozilla/5.0 (X11; Linux x86_64) AppleWebKit/537.36 (KHTML, like Gecko) Chrome/92.0.4515.166 Safari/537.36",1648,3011,412,809,,,,,,,,8,3.1691,0.395484776,-0.420671333,1,0,0,next_trial_button,0,20,20,49,1,beach,invisiblesun,yesclouds,6,"858.4474885844749,500",
,,,,,,,gr,gr,gr,m,24,,2021-08-31_22h58.35.333,online_experiment,2021.1.4,Linux aarch64,60.20469597,FALSE,,"Mozilla/5.0 (X11; Linux x86_64) AppleWebKit/537.36 (KHTML, like Gecko) Chrome/92.0.4515.166 Safari/537.36",1648,3011,412,809,,,,,,,,4,1.738,0.368178951,-0.424853871,1,0,0,next_trial_button,0,21,21,36,1,landscape,invisiblesun,noclouds,4,"281.25,500",
,,,,,,,gr,gr,gr,m,24,,2021-08-31_22h58.35.333,online_experiment,2021.1.4,Linux aarch64,60.20469597,FALSE,,"Mozilla/5.0 (X11; Linux x86_64) AppleWebKit/537.36 (KHTML, like Gecko) Chrome/92.0.4515.166 Safari/537.36",1648,3011,412,809,,,,,,,,3,1.718,0.387926935,-0.432696296,1,0,0,next_trial_button,0,22,22,73,1,beach,invisiblesun,yesclouds,9,"1028.5714285714284,500",
,,,,,,,gr,gr,gr,m,24,,2021-08-31_22h58.35.333,online_experiment,2021.1.4,Linux aarch64,60.20469597,FALSE,,"Mozilla/5.0 (X11; Linux x86_64) AppleWebKit/537.36 (KHTML, like Gecko) Chrome/92.0.4515.166 Safari/537.36",1648,3011,412,809,,,,,,,,4,2.5564,0.371592179,-0.425899617,1,0,0,next_trial_button,0,23,23,64,1,beach,invisiblesun,noclouds,8,"1028.5714285714284,500",
,,,,,,,gr,gr,gr,m,24,,2021-08-31_22h58.35.333,online_experiment,2021.1.4,Linux aarch64,60.20469597,FALSE,,"Mozilla/5.0 (X11; Linux x86_64) AppleWebKit/537.36 (KHTML, like Gecko) Chrome/92.0.4515.166 Safari/537.36",1648,3011,412,809,,,,,,,,5,1.8762,0.379881479,-0.426422415,1,0,0,next_trial_button,0,24,24,25,1,beach,invisiblesun,yesclouds,3,"750.4690431519699,500",
,,,,,,,gr,gr,gr,m,24,,2021-08-31_22h58.35.333,online_experiment,2021.1.4,Linux aarch64,60.20469597,FALSE,,"Mozilla/5.0 (X11; Linux x86_64) AppleWebKit/537.36 (KHTML, like Gecko) Chrome/92.0.4515.166 Safari/537.36",1648,3011,412,809,,,,,,,,4,1.5407,0.370129483,-0.426422415,1,0,0,next_trial_button,0,25,25,12,1,landscape,invisiblesun,noclouds,1,"666.6666666666666,500",
,,,,,,,gr,gr,gr,m,24,,2021-08-31_22h58.35.333,online_experiment,2021.1.4,Linux aarch64,60.20469597,FALSE,,"Mozilla/5.0 (X11; Linux x86_64) AppleWebKit/537.36 (KHTML, like Gecko) Chrome/92.0.4515.166 Safari/537.36",1648,3011,412,809,,,,,,,,4,1.4609,0.377931095,-0.410214915,1,0,0,next_trial_button,0,26,26,8,1,beach,invisiblesun,noclouds,1,"1215.1898734177216,500",
,,,,,,,gr,gr,gr,m,24,,2021-08-31_22h58.35.333,online_experiment,2021.1.4,Linux aarch64,60.20469597,FALSE,,"Mozilla/5.0 (X11; Linux x86_64) AppleWebKit/537.36 (KHTML, like Gecko) Chrome/92.0.4515.166 Safari/537.36",1648,3011,412,809,,,,,,,,5,3.5617,0.379881479,-0.401327041,1,0,0,next_trial_button,0,27,27,21,1,landscape,invisiblesun,yesclouds,2,"750,500",
,,,,,,,gr,gr,gr,m,24,,2021-08-31_22h58.35.333,online_experiment,2021.1.4,Linux aarch64,60.20469597,FALSE,,"Mozilla/5.0 (X11; Linux x86_64) AppleWebKit/537.36 (KHTML, like Gecko) Chrome/92.0.4515.166 Safari/537.36",1648,3011,412,809,,,,,,,,6,3.0276,0.378662554,-0.427990812,1,0,0,next_trial_button,0,28,28,76,1,landscape,invisiblesun,noclouds,9,"1056.6037735849056,500",
,,,,,,,gr,gr,gr,m,24,,2021-08-31_22h58.35.333,online_experiment,2021.1.4,Linux aarch64,60.20469597,FALSE,,"Mozilla/5.0 (X11; Linux x86_64) AppleWebKit/537.36 (KHTML, like Gecko) Chrome/92.0.4515.166 Safari/537.36",1648,3011,412,809,,,,,,,,5,6.43,0.381100479,-0.412306258,1,0,0,next_trial_button,0,29,29,2,1,beach,visiblesun,noclouds,0,"375,500",
,,,,,,,gr,gr,gr,m,24,,2021-08-31_22h58.35.333,online_experiment,2021.1.4,Linux aarch64,60.20469597,FALSE,,"Mozilla/5.0 (X11; Linux x86_64) AppleWebKit/537.36 (KHTML, like Gecko) Chrome/92.0.4515.166 Safari/537.36",1648,3011,412,809,,,,,,,,5,4.4881,0.365253337,-0.401849839,1,0,0,next_trial_button,0,30,30,3,1,beach,visiblesun,yesclouds,0,"1152.5122276567363,500",
,,,,,,,gr,gr,gr,m,24,,2021-08-31_22h58.35.333,online_experiment,2021.1.4,Linux aarch64,60.20469597,FALSE,,"Mozilla/5.0 (X11; Linux x86_64) AppleWebKit/537.36 (KHTML, like Gecko) Chrome/92.0.4515.166 Safari/537.36",1648,3011,412,809,,,,,,,,6,5.2724,0.430348517,-0.39505316,1,0,0,next_trial_button,0,31,31,32,1,beach,invisiblesun,noclouds,4,"750,500",
,,,,,,,gr,gr,gr,m,24,,2021-08-31_22h58.35.333,online_experiment,2021.1.4,Linux aarch64,60.20469597,FALSE,,"Mozilla/5.0 (X11; Linux x86_64) AppleWebKit/537.36 (KHTML, like Gecko) Chrome/92.0.4515.166 Safari/537.36",1648,3011,412,809,,,,,,,,7,2.6841,0.367447566,-0.396621704,1,0,0,next_trial_button,0,32,32,65,1,beach,invisiblesun,yesclouds,8,"750,500",
,,,,,,,gr,gr,gr,m,24,,2021-08-31_22h58.35.333,online_experiment,2021.1.4,Linux aarch64,60.20469597,FALSE,,"Mozilla/5.0 (X11; Linux x86_64) AppleWebKit/537.36 (KHTML, like Gecko) Chrome/92.0.4515.166 Safari/537.36",1648,3011,412,809,,,,,,,,8,1.6754,0.384513707,-0.381459949,1,0,0,next_trial_button,0,33,33,51,1,beach,visiblesun,yesclouds,6,"657.1279916753382,500",
,,,,,,,gr,gr,gr,m,24,,2021-08-31_22h58.35.333,online_experiment,2021.1.4,Linux aarch64,60.20469597,FALSE,,"Mozilla/5.0 (X11; Linux x86_64) AppleWebKit/537.36 (KHTML, like Gecko) Chrome/92.0.4515.166 Safari/537.36",1648,3011,412,809,,,,,,,,5,2.8882,0.36915418,-0.422239878,1,0,0,next_trial_button,0,34,34,62,1,landscape,visiblesun,noclouds,7,"417.42389822807814,500",
,,,,,,,gr,gr,gr,m,24,,2021-08-31_22h58.35.333,online_experiment,2021.1.4,Linux aarch64,60.20469597,FALSE,,"Mozilla/5.0 (X11; Linux x86_64) AppleWebKit/537.36 (KHTML, like Gecko) Chrome/92.0.4515.166 Safari/537.36",1648,3011,412,809,,,,,,,,6,1.8966,0.365253337,-0.41805734,1,0,0,next_trial_button,0,35,35,27,1,beach,visiblesun,yesclouds,3,"752.8089887640449,500",
,,,,,,,gr,gr,gr,m,24,,2021-08-31_22h58.35.333,online_experiment,2021.1.4,Linux aarch64,60.20469597,FALSE,,"Mozilla/5.0 (X11; Linux x86_64) AppleWebKit/537.36 (KHTML, like Gecko) Chrome/92.0.4515.166 Safari/537.36",1648,3011,412,809,,,,,,,,6,2.101,0.379393865,-0.431650551,1,0,0,next_trial_button,0,36,36,9,1,beach,invisiblesun,yesclouds,1,"750,500",
,,,,,,,gr,gr,gr,m,24,,2021-08-31_22h58.35.333,online_experiment,2021.1.4,Linux aarch64,60.20469597,FALSE,,"Mozilla/5.0 (X11; Linux x86_64) AppleWebKit/537.36 (KHTML, like Gecko) Chrome/92.0.4515.166 Safari/537.36",1648,3011,412,809,,,,,,,,6,1.5575,0.370860794,-0.415443198,1,0,0,next_trial_button,0,37,37,43,1,beach,visiblesun,yesclouds,5,"750,500",
,,,,,,,gr,gr,gr,m,24,,2021-08-31_22h58.35.333,online_experiment,2021.1.4,Linux aarch64,60.20469597,FALSE,,"Mozilla/5.0 (X11; Linux x86_64) AppleWebKit/537.36 (KHTML, like Gecko) Chrome/92.0.4515.166 Safari/537.36",1648,3011,412,809,,,,,,,,9,1.8273,0.387195624,-0.41126066,1,0,0,next_trial_button,0,38,38,61,1,landscape,invisiblesun,yesclouds,7,"500,500",
,,,,,,,gr,gr,gr,m,24,,2021-08-31_22h58.35.333,online_experiment,2021.1.4,Linux aarch64,60.20469597,FALSE,,"Mozilla/5.0 (X11; Linux x86_64) AppleWebKit/537.36 (KHTML, like Gecko) Chrome/92.0.4515.166 Safari/537.36",1648,3011,412,809,,,,,,,,6,2.4583,0.384026092,-0.406555176,1,0,0,next_trial_button,0,39,39,74,1,beach,visiblesun,noclouds,9,"1028.5714285714284,500",
,,,,,,,gr,gr,gr,m,24,,2021-08-31_22h58.35.333,online_experiment,2021.1.4,Linux aarch64,60.20469597,FALSE,,"Mozilla/5.0 (X11; Linux x86_64) AppleWebKit/537.36 (KHTML, like Gecko) Chrome/92.0.4515.166 Safari/537.36",1648,3011,412,809,,,,,,,,6,3.1827,0.377199636,-0.406032377,1,0,0,next_trial_button,0,40,40,26,1,beach,visiblesun,noclouds,3,"888.8888888888888,500",
,,,,,,,gr,gr,gr,m,24,,2021-08-31_22h58.35.333,online_experiment,2021.1.4,Linux aarch64,60.20469597,FALSE,,"Mozilla/5.0 (X11; Linux x86_64) AppleWebKit/537.36 (KHTML, like Gecko) Chrome/92.0.4515.166 Safari/537.36",1648,3011,412,809,,,,,,,,5,2.7459,0.371348409,-0.403418384,1,0,0,next_trial_button,0,41,41,18,1,beach,visiblesun,noclouds,2,"666.6666666666666,500",
,,,,,,,gr,gr,gr,m,24,,2021-08-31_22h58.35.333,online_experiment,2021.1.4,Linux aarch64,60.20469597,FALSE,,"Mozilla/5.0 (X11; Linux x86_64) AppleWebKit/537.36 (KHTML, like Gecko) Chrome/92.0.4515.166 Safari/537.36",1648,3011,412,809,,,,,,,,6,2.707,0.356476571,-0.432173349,1,0,0,next_trial_button,0,42,42,57,1,beach,invisiblesun,yesclouds,7,"749.707488299532,500",
,,,,,,,gr,gr,gr,m,24,,2021-08-31_22h58.35.333,online_experiment,2021.1.4,Linux aarch64,60.20469597,FALSE,,"Mozilla/5.0 (X11; Linux x86_64) AppleWebKit/537.36 (KHTML, like Gecko) Chrome/92.0.4515.166 Safari/537.36",1648,3011,412,809,,,,,,,,2,1.5485,0.356476571,-0.423808274,1,0,0,next_trial_button,0,43,43,5,1,landscape,invisiblesun,yesclouds,0,"750.4690431519699,500",
,,,,,,,gr,gr,gr,m,24,,2021-08-31_22h58.35.333,online_experiment,2021.1.4,Linux aarch64,60.20469597,FALSE,,"Mozilla/5.0 (X11; Linux x86_64) AppleWebKit/537.36 (KHTML, like Gecko) Chrome/92.0.4515.166 Safari/537.36",1648,3011,412,809,,,,,,,,7,1.9624,0.369885565,-0.430604953,1,0,0,next_trial_button,0,44,44,41,1,beach,invisiblesun,yesclouds,5,"1248.4394506866417,500",
,,,,,,,gr,gr,gr,m,24,,2021-08-31_22h58.35.333,online_experiment,2021.1.4,Linux aarch64,60.20469597,FALSE,,"Mozilla/5.0 (X11; Linux x86_64) AppleWebKit/537.36 (KHTML, like Gecko) Chrome/92.0.4515.166 Safari/537.36",1648,3011,412,809,,,,,,,,2,2.1088,0.375980636,-0.413874654,1,0,0,next_trial_button,0,45,45,68,1,landscape,invisiblesun,noclouds,8,"666.6666666666666,500",
,,,,,,,gr,gr,gr,m,24,,2021-08-31_22h58.35.333,online_experiment,2021.1.4,Linux aarch64,60.20469597,FALSE,,"Mozilla/5.0 (X11; Linux x86_64) AppleWebKit/537.36 (KHTML, like Gecko) Chrome/92.0.4515.166 Safari/537.36",1648,3011,412,809,,,,,,,,6,2.3344,0.398166619,-0.449426447,1,0,0,next_trial_button,0,46,46,6,1,landscape,visiblesun,noclouds,0,"1413.8005159071367,500",
,,,,,,,gr,gr,gr,m,24,,2021-08-31_22h58.35.333,online_experiment,2021.1.4,Linux aarch64,60.20469597,FALSE,,"Mozilla/5.0 (X11; Linux x86_64) AppleWebKit/537.36 (KHTML, like Gecko) Chrome/92.0.4515.166 Safari/537.36",1648,3011,412,809,,,,,,,,4,2.6934,0.369641795,-0.386165286,1,0,0,next_trial_button,0,47,47,54,1,landscape,visiblesun,noclouds,6,"695.0043821209465,500",
,,,,,,,gr,gr,gr,m,24,,2021-08-31_22h58.35.333,online_experiment,2021.1.4,Linux aarch64,60.20469597,FALSE,,"Mozilla/5.0 (X11; Linux x86_64) AppleWebKit/537.36 (KHTML, like Gecko) Chrome/92.0.4515.166 Safari/537.36",1648,3011,412,809,,,,,,,,7,5.1648,0.390121164,-0.426422415,1,0,0,next_trial_button,0,48,48,15,1,landscape,visiblesun,yesclouds,1,"333.3333333333333,500",
,,,,,,,gr,gr,gr,m,24,,2021-08-31_22h58.35.333,online_experiment,2021.1.4,Linux aarch64,60.20469597,FALSE,,"Mozilla/5.0 (X11; Linux x86_64) AppleWebKit/537.36 (KHTML, like Gecko) Chrome/92.0.4515.166 Safari/537.36",1648,3011,412,809,,,,,,,,2,1.924,0.353063343,-0.417534393,1,0,0,next_trial_button,0,49,49,23,1,landscape,visiblesun,yesclouds,2,"767.97829036635,500",
,,,,,,,gr,gr,gr,m,24,,2021-08-31_22h58.35.333,online_experiment,2021.1.4,Linux aarch64,60.20469597,FALSE,,"Mozilla/5.0 (X11; Linux x86_64) AppleWebKit/537.36 (KHTML, like Gecko) Chrome/92.0.4515.166 Safari/537.36",1648,3011,412,809,,,,,,,,4,2.702,0.36769141,-0.422239878,1,0,0,next_trial_button,0,50,50,79,1,landscape,visiblesun,yesclouds,9,"1028.5714285714284,500",
,,,,,,,gr,gr,gr,m,24,,2021-08-31_22h58.35.333,online_experiment,2021.1.4,Linux aarch64,60.20469597,FALSE,,"Mozilla/5.0 (X11; Linux x86_64) AppleWebKit/537.36 (KHTML, like Gecko) Chrome/92.0.4515.166 Safari/537.36",1648,3011,412,809,,,,,,,,2,2.8865,0.377687251,-0.409169317,1,0,0,next_trial_button,0,51,51,0,1,beach,invisiblesun,noclouds,0,"750,500",
,,,,,,,gr,gr,gr,m,24,,2021-08-31_22h58.35.333,online_experiment,2021.1.4,Linux aarch64,60.20469597,FALSE,,"Mozilla/5.0 (X11; Linux x86_64) AppleWebKit/537.36 (KHTML, like Gecko) Chrome/92.0.4515.166 Safari/537.36",1648,3011,412,809,,,,,,,,5,1.7889,0.354526038,-0.425899617,1,0,0,next_trial_button,0,52,52,75,1,beach,visiblesun,yesclouds,9,"1029.6010296010297,500",
,,,,,,,gr,gr,gr,m,24,,2021-08-31_22h58.35.333,online_experiment,2021.1.4,Linux aarch64,60.20469597,FALSE,,"Mozilla/5.0 (X11; Linux x86_64) AppleWebKit/537.36 (KHTML, like Gecko) Chrome/92.0.4515.166 Safari/537.36",1648,3011,412,809,,,,,,,,3,1.7283,0.351844269,-0.423808274,1,0,0,next_trial_button,0,53,53,78,1,landscape,visiblesun,noclouds,9,"666.6666666666666,500",
,,,,,,,gr,gr,gr,m,24,,2021-08-31_22h58.35.333,online_experiment,2021.1.4,Linux aarch64,60.20469597,FALSE,,"Mozilla/5.0 (X11; Linux x86_64) AppleWebKit/537.36 (KHTML, like Gecko) Chrome/92.0.4515.166 Safari/537.36",1648,3011,412,809,,,,,,,,5,4.0948,0.392559163,-0.422762676,1,0,0,next_trial_button,0,54,54,59,1,beach,visiblesun,yesclouds,7,"888.9689978370584,500",
,,,,,,,gr,gr,gr,m,24,,2021-08-31_22h58.35.333,online_experiment,2021.1.4,Linux aarch64,60.20469597,FALSE,,"Mozilla/5.0 (X11; Linux x86_64) AppleWebKit/537.36 (KHTML, like Gecko) Chrome/92.0.4515.166 Safari/537.36",1648,3011,412,809,,,,,,,,6,1.9592,0.422790601,-0.415443198,1,0,0,next_trial_button,0,55,55,16,1,beach,invisiblesun,noclouds,2,"752.8089887640449,500",
,,,,,,,gr,gr,gr,m,24,,2021-08-31_22h58.35.333,online_experiment,2021.1.4,Linux aarch64,60.20469597,FALSE,,"Mozilla/5.0 (X11; Linux x86_64) AppleWebKit/537.36 (KHTML, like Gecko) Chrome/92.0.4515.166 Safari/537.36",1648,3011,412,809,,,,,,,,4,1.7142,0.396216235,-0.408646519,1,0,0,next_trial_button,0,56,56,40,1,beach,invisiblesun,noclouds,5,"1028.5714285714284,500",
,,,,,,,gr,gr,gr,m,24,,2021-08-31_22h58.35.333,online_experiment,2021.1.4,Linux aarch64,60.20469597,FALSE,,"Mozilla/5.0 (X11; Linux x86_64) AppleWebKit/537.36 (KHTML, like Gecko) Chrome/92.0.4515.166 Safari/537.36",1648,3011,412,809,,,,,,,,8,1.794,0.400604618,-0.402372638,1,0,0,next_trial_button,0,57,57,66,1,beach,visiblesun,noclouds,8,"1028.5714285714284,500",
,,,,,,,gr,gr,gr,m,24,,2021-08-31_22h58.35.333,online_experiment,2021.1.4,Linux aarch64,60.20469597,FALSE,,"Mozilla/5.0 (X11; Linux x86_64) AppleWebKit/537.36 (KHTML, like Gecko) Chrome/92.0.4515.166 Safari/537.36",1648,3011,412,809,,,,,,,,7,1.9568,0.409625303,-0.413351855,1,0,0,next_trial_button,0,58,58,34,1,beach,visiblesun,noclouds,4,"749.6251874062968,500",
,,,,,,,gr,gr,gr,m,24,,2021-08-31_22h58.35.333,online_experiment,2021.1.4,Linux aarch64,60.20469597,FALSE,,"Mozilla/5.0 (X11; Linux x86_64) AppleWebKit/537.36 (KHTML, like Gecko) Chrome/92.0.4515.166 Safari/537.36",1648,3011,412,809,,,,,,,,9,1.9638,0.407187304,-0.443675513,1,0,0,next_trial_button,0,59,59,45,1,landscape,invisiblesun,yesclouds,5,"749.6251874062968,500",
,,,,,,,gr,gr,gr,m,24,,2021-08-31_22h58.35.333,online_experiment,2021.1.4,Linux aarch64,60.20469597,FALSE,,"Mozilla/5.0 (X11; Linux x86_64) AppleWebKit/537.36 (KHTML, like Gecko) Chrome/92.0.4515.166 Safari/537.36",1648,3011,412,809,,,,,,,,6,10.3077,0.394753391,-0.402372638,1,0,0,next_trial_button,0,60,60,17,1,beach,invisiblesun,yesclouds,2,"684.8635235732011,500",
,,,,,,,gr,gr,gr,m,24,,2021-08-31_22h58.35.333,online_experiment,2021.1.4,Linux aarch64,60.20469597,FALSE,,"Mozilla/5.0 (X11; Linux x86_64) AppleWebKit/537.36 (KHTML, like Gecko) Chrome/92.0.4515.166 Safari/537.36",1648,3011,412,809,,,,,,,,7,11.7099,0.406212075,-0.401849839,1,0,0,next_trial_button,0,61,61,44,1,landscape,invisiblesun,noclouds,5,"666.6666666666666,500",
,,,,,,,gr,gr,gr,m,24,,2021-08-31_22h58.35.333,online_experiment,2021.1.4,Linux aarch64,60.20469597,FALSE,,"Mozilla/5.0 (X11; Linux x86_64) AppleWebKit/537.36 (KHTML, like Gecko) Chrome/92.0.4515.166 Safari/537.36",1648,3011,412,809,,,,,,,,9,1.7502,0.411575762,-0.414920399,1,0,0,next_trial_button,0,62,62,58,1,beach,visiblesun,noclouds,7,"1028.5714285714284,500",
,,,,,,,gr,gr,gr,m,24,,2021-08-31_22h58.35.333,online_experiment,2021.1.4,Linux aarch64,60.20469597,FALSE,,"Mozilla/5.0 (X11; Linux x86_64) AppleWebKit/537.36 (KHTML, like Gecko) Chrome/92.0.4515.166 Safari/537.36",1648,3011,412,809,,,,,,,,6,1.99,0.37744348,-0.414920399,1,0,0,next_trial_button,0,63,63,50,1,beach,visiblesun,noclouds,6,"666.6666666666666,500",
,,,,,,,gr,gr,gr,m,24,,2021-08-31_22h58.35.333,online_experiment,2021.1.4,Linux aarch64,60.20469597,FALSE,,"Mozilla/5.0 (X11; Linux x86_64) AppleWebKit/537.36 (KHTML, like Gecko) Chrome/92.0.4515.166 Safari/537.36",1648,3011,412,809,,,,,,,,8,1.8113,0.38743932,-0.394530361,1,0,0,next_trial_button,0,64,64,29,1,landscape,invisiblesun,yesclouds,3,"749.8660953401178,500",
,,,,,,,gr,gr,gr,m,24,,2021-08-31_22h58.35.333,online_experiment,2021.1.4,Linux aarch64,60.20469597,FALSE,,"Mozilla/5.0 (X11; Linux x86_64) AppleWebKit/537.36 (KHTML, like Gecko) Chrome/92.0.4515.166 Safari/537.36",1648,3011,412,809,,,,,,,,3,2.7797,0.393046777,-0.404463981,1,0,0,next_trial_button,0,65,65,52,1,landscape,invisiblesun,noclouds,6,"666.6666666666666,500",
,,,,,,,gr,gr,gr,m,24,,2021-08-31_22h58.35.333,online_experiment,2021.1.4,Linux aarch64,60.20469597,FALSE,,"Mozilla/5.0 (X11; Linux x86_64) AppleWebKit/537.36 (KHTML, like Gecko) Chrome/92.0.4515.166 Safari/537.36",1648,3011,412,809,,,,,,,,8,2.8157,0.392315466,-0.411783459,1,0,0,next_trial_button,0,66,66,35,1,beach,visiblesun,yesclouds,4,"750,500",
,,,,,,,gr,gr,gr,m,24,,2021-08-31_22h58.35.333,online_experiment,2021.1.4,Linux aarch64,60.20469597,FALSE,,"Mozilla/5.0 (X11; Linux x86_64) AppleWebKit/537.36 (KHTML, like Gecko) Chrome/92.0.4515.166 Safari/537.36",1648,3011,412,809,,,,,,,,7,1.9824,0.386707936,-0.420148535,1,0,0,next_trial_button,0,67,67,20,1,landscape,invisiblesun,noclouds,2,"755.192878338279,500",
,,,,,,,gr,gr,gr,m,24,,2021-08-31_22h58.35.333,online_experiment,2021.1.4,Linux aarch64,60.20469597,FALSE,,"Mozilla/5.0 (X11; Linux x86_64) AppleWebKit/537.36 (KHTML, like Gecko) Chrome/92.0.4515.166 Safari/537.36",1648,3011,412,809,,,,,,,,6,3.7794,0.384269937,-0.412306258,1,0,0,next_trial_button,0,68,68,77,1,landscape,invisiblesun,yesclouds,9,"888.8888888888888,500",
,,,,,,,gr,gr,gr,m,24,,2021-08-31_22h58.35.333,online_experiment,2021.1.4,Linux aarch64,60.20469597,FALSE,,"Mozilla/5.0 (X11; Linux x86_64) AppleWebKit/537.36 (KHTML, like Gecko) Chrome/92.0.4515.166 Safari/537.36",1648,3011,412,809,,,,,,,,6,1.8409,0.356720267,-0.409692116,1,0,0,next_trial_button,0,69,69,69,1,landscape,invisiblesun,yesclouds,8,"750,500",
,,,,,,,gr,gr,gr,m,24,,2021-08-31_22h58.35.333,online_experiment,2021.1.4,Linux aarch64,60.20469597,FALSE,,"Mozilla/5.0 (X11; Linux x86_64) AppleWebKit/537.36 (KHTML, like Gecko) Chrome/92.0.4515.166 Safari/537.36",1648,3011,412,809,,,,,,,,4,1.9544,0.383294707,-0.423808274,1,0,0,next_trial_button,0,70,70,31,1,landscape,visiblesun,yesclouds,3,"638.0622837370242,500",
,,,,,,,gr,gr,gr,m,24,,2021-08-31_22h58.35.333,online_experiment,2021.1.4,Linux aarch64,60.20469597,FALSE,,"Mozilla/5.0 (X11; Linux x86_64) AppleWebKit/537.36 (KHTML, like Gecko) Chrome/92.0.4515.166 Safari/537.36",1648,3011,412,809,,,,,,,,7,1.9858,0.401092233,-0.426945214,1,0,0,next_trial_button,0,71,71,4,1,landscape,invisiblesun,noclouds,0,"1276.9171185127807,500",
,,,,,,,gr,gr,gr,m,24,,2021-08-31_22h58.35.333,online_experiment,2021.1.4,Linux aarch64,60.20469597,FALSE,,"Mozilla/5.0 (X11; Linux x86_64) AppleWebKit/537.36 (KHTML, like Gecko) Chrome/92.0.4515.166 Safari/537.36",1648,3011,412,809,,,,,,,,4,2.1793,0.392803007,-0.431127752,1,0,0,next_trial_button,0,72,72,22,1,landscape,visiblesun,noclouds,2,"749.3333333333333,500",
,,,,,,,gr,gr,gr,m,24,,2021-08-31_22h58.35.333,online_experiment,2021.1.4,Linux aarch64,60.20469597,FALSE,,"Mozilla/5.0 (X11; Linux x86_64) AppleWebKit/537.36 (KHTML, like Gecko) Chrome/92.0.4515.166 Safari/537.36",1648,3011,412,809,,,,,,,,3,1.5326,0.398166619,-0.427990812,1,0,0,next_trial_button,0,73,73,60,1,landscape,invisiblesun,noclouds,7,"666.7268134247564,500",
,,,,,,,gr,gr,gr,m,24,,2021-08-31_22h58.35.333,online_experiment,2021.1.4,Linux aarch64,60.20469597,FALSE,,"Mozilla/5.0 (X11; Linux x86_64) AppleWebKit/537.36 (KHTML, like Gecko) Chrome/92.0.4515.166 Safari/537.36",1648,3011,412,809,,,,,,,,2,1.7705,0.395728695,-0.412829057,1,0,0,next_trial_button,0,74,74,70,1,landscape,visiblesun,noclouds,8,"666.6666666666666,500",
,,,,,,,gr,gr,gr,m,24,,2021-08-31_22h58.35.333,online_experiment,2021.1.4,Linux aarch64,60.20469597,FALSE,,"Mozilla/5.0 (X11; Linux x86_64) AppleWebKit/537.36 (KHTML, like Gecko) Chrome/92.0.4515.166 Safari/537.36",1648,3011,412,809,,,,,,,,4,1.9339,0.372079794,-0.430082155,1,0,0,next_trial_button,0,75,75,48,1,beach,invisiblesun,noclouds,6,"1028.5714285714284,500",
,,,,,,,gr,gr,gr,m,24,,2021-08-31_22h58.35.333,online_experiment,2021.1.4,Linux aarch64,60.20469597,FALSE,,"Mozilla/5.0 (X11; Linux x86_64) AppleWebKit/537.36 (KHTML, like Gecko) Chrome/92.0.4515.166 Safari/537.36",1648,3011,412,809,,,,,,,,2,1.4782,0.382075782,-0.438970029,1,0,0,next_trial_button,0,76,76,7,1,landscape,visiblesun,yesclouds,0,"743.421052631579,500",
,,,,,,,gr,gr,gr,m,24,,2021-08-31_22h58.35.333,online_experiment,2021.1.4,Linux aarch64,60.20469597,FALSE,,"Mozilla/5.0 (X11; Linux x86_64) AppleWebKit/537.36 (KHTML, like Gecko) Chrome/92.0.4515.166 Safari/537.36",1648,3011,412,809,,,,,,,,3,1.5984,0.37744348,-0.391916219,1,0,0,next_trial_button,0,77,77,55,1,landscape,visiblesun,yesclouds,6,"749.8819083608881,500",
,,,,,,,gr,gr,gr,m,24,,2021-08-31_22h58.35.333,online_experiment,2021.1.4,Linux aarch64,60.20469597,FALSE,,"Mozilla/5.0 (X11; Linux x86_64) AppleWebKit/537.36 (KHTML, like Gecko) Chrome/92.0.4515.166 Safari/537.36",1648,3011,412,809,,,,,,,,2,4.8333,0.367447566,-0.399758644,1,0,0,next_trial_button,0,78,78,42,1,beach,visiblesun,noclouds,5,"834.4594594594595,500",
,,,,,,,gr,gr,gr,m,24,,2021-08-31_22h58.35.333,online_experiment,2021.1.4,Linux aarch64,60.20469597,FALSE,,"Mozilla/5.0 (X11; Linux x86_64) AppleWebKit/537.36 (KHTML, like Gecko) Chrome/92.0.4515.166 Safari/537.36",1648,3011,412,809,,,,,,,,5,6.805,0.356964111,-0.417011594,1,0,0,next_trial_button,0,79,79,71,1,landscape,visiblesun,yesclouds,8,"666.6666666666666,500",
,,,,,,,gr,gr,gr,m,24,,2021-08-31_22h58.35.333,online_experiment,2021.1.4,Linux aarch64,60.20469597,FALSE,,"Mozilla/5.0 (X11; Linux x86_64) AppleWebKit/537.36 (KHTML, like Gecko) Chrome/92.0.4515.166 Safari/537.36",1648,3011,412,809,,,,,,,,,,,,,,,,,,,,,,,,,"666.6666666666666,500",294.5859
