language_mouse.x,language_mouse.y,language_mouse.leftButton,language_mouse.midButton,language_mouse.rightButton,language_mouse.time,language_mouse.clicked_name,nationality,mother_tongue,homeland,gender,age,email,date,expName,psychopyVersion,OS,frameRate,cancel_experiment,cancel_reasons,client_agent_information,windowWidth,windowHeight,xRes,yRes,start_exp_mouse.x,start_exp_mouse.y,start_exp_mouse.leftButton,start_exp_mouse.midButton,start_exp_mouse.rightButton,start_exp_mouse.time,start_exp_mouse.clicked_name,rating_slider.response,rating_slider.rt,next_trial_mouse.x,next_trial_mouse.y,next_trial_mouse.leftButton,next_trial_mouse.midButton,next_trial_mouse.rightButton,next_trial_mouse.clicked_name,trials.thisRepN,trials.thisTrialN,trials.thisN,trials.thisIndex,trials.ran,environment,sunVisibility,cloudVisibility,imageId,imgSize,globalClockTime
-0.320952381,-0.264761905,1,0,0,1.651015,de_flag,de,de,de,m,32,,2021-07-14_09h12.34.145,online_experiment,2021.1.4,Linux x86_64,59.91252771,FALSE,,"Mozilla/5.0 (X11; Fedora; Linux x86_64) AppleWebKit/537.36 (KHTML, like Gecko) Chrome/81.0.4044.138 Safari/537.36",1680,947,1680,1050,,,,,,,,,,,,,,,,,,,,,,,,,,
,,,,,,,de,de,de,m,32,,2021-07-14_09h12.34.145,online_experiment,2021.1.4,Linux x86_64,59.91252771,FALSE,,"Mozilla/5.0 (X11; Fedora; Linux x86_64) AppleWebKit/537.36 (KHTML, like Gecko) Chrome/81.0.4044.138 Safari/537.36",1680,947,1680,1050,0.048571429,-0.401904762,1,0,0,39.955395,cont_gr,3,3.82441,0.399047619,-0.415238095,1,0,0,next_trial_button,0,0,0,75,1,beach,visiblesun,yesclouds,9,"1029.6010296010297,500",
,,,,,,,de,de,de,m,32,,2021-07-14_09h12.34.145,online_experiment,2021.1.4,Linux x86_64,59.91252771,FALSE,,"Mozilla/5.0 (X11; Fedora; Linux x86_64) AppleWebKit/537.36 (KHTML, like Gecko) Chrome/81.0.4044.138 Safari/537.36",1680,947,1680,1050,,,,,,,,6,3.00698,0.393333333,-0.424761905,1,0,0,next_trial_button,0,1,1,58,1,beach,visiblesun,noclouds,7,"1028.5714285714284,500",
,,,,,,,de,de,de,m,32,,2021-07-14_09h12.34.145,online_experiment,2021.1.4,Linux x86_64,59.91252771,FALSE,,"Mozilla/5.0 (X11; Fedora; Linux x86_64) AppleWebKit/537.36 (KHTML, like Gecko) Chrome/81.0.4044.138 Safari/537.36",1680,947,1680,1050,,,,,,,,8,177.63744,0.445714286,-0.413333333,1,0,0,next_trial_button,0,2,2,76,1,landscape,invisiblesun,noclouds,9,"1056.6037735849056,500",
,,,,,,,de,de,de,m,32,,2021-07-14_09h12.34.145,online_experiment,2021.1.4,Linux x86_64,59.91252771,FALSE,,"Mozilla/5.0 (X11; Fedora; Linux x86_64) AppleWebKit/537.36 (KHTML, like Gecko) Chrome/81.0.4044.138 Safari/537.36",1680,947,1680,1050,,,,,,,,4,19.797805,0.351428571,-0.42,1,0,0,next_trial_button,0,3,3,74,1,beach,visiblesun,noclouds,9,"1028.5714285714284,500",
,,,,,,,de,de,de,m,32,,2021-07-14_09h12.34.145,online_experiment,2021.1.4,Linux x86_64,59.91252771,FALSE,,"Mozilla/5.0 (X11; Fedora; Linux x86_64) AppleWebKit/537.36 (KHTML, like Gecko) Chrome/81.0.4044.138 Safari/537.36",1680,947,1680,1050,,,,,,,,9,2.12254,0.497142857,-0.411428571,1,0,0,next_trial_button,0,4,4,20,1,landscape,invisiblesun,noclouds,2,"755.192878338279,500",
,,,,,,,de,de,de,m,32,,2021-07-14_09h12.34.145,online_experiment,2021.1.4,Linux x86_64,59.91252771,FALSE,,"Mozilla/5.0 (X11; Fedora; Linux x86_64) AppleWebKit/537.36 (KHTML, like Gecko) Chrome/81.0.4044.138 Safari/537.36",1680,947,1680,1050,,,,,,,,5,2.83341,0.36,-0.427619048,1,0,0,next_trial_button,0,5,5,25,1,beach,invisiblesun,yesclouds,3,"750.4690431519699,500",
,,,,,,,de,de,de,m,32,,2021-07-14_09h12.34.145,online_experiment,2021.1.4,Linux x86_64,59.91252771,FALSE,,"Mozilla/5.0 (X11; Fedora; Linux x86_64) AppleWebKit/537.36 (KHTML, like Gecko) Chrome/81.0.4044.138 Safari/537.36",1680,947,1680,1050,,,,,,,,6,3.18203,0.36952381,-0.422857143,1,0,0,next_trial_button,0,6,6,40,1,beach,invisiblesun,noclouds,5,"1028.5714285714284,500",
,,,,,,,de,de,de,m,32,,2021-07-14_09h12.34.145,online_experiment,2021.1.4,Linux x86_64,59.91252771,FALSE,,"Mozilla/5.0 (X11; Fedora; Linux x86_64) AppleWebKit/537.36 (KHTML, like Gecko) Chrome/81.0.4044.138 Safari/537.36",1680,947,1680,1050,,,,,,,,8,2.48438,0.407619048,-0.40952381,1,0,0,next_trial_button,0,7,7,6,1,landscape,visiblesun,noclouds,0,"1413.8005159071367,500",
,,,,,,,de,de,de,m,32,,2021-07-14_09h12.34.145,online_experiment,2021.1.4,Linux x86_64,59.91252771,FALSE,,"Mozilla/5.0 (X11; Fedora; Linux x86_64) AppleWebKit/537.36 (KHTML, like Gecko) Chrome/81.0.4044.138 Safari/537.36",1680,947,1680,1050,,,,,,,,3,2.727385,0.451428571,-0.421904762,1,0,0,next_trial_button,0,8,8,10,1,beach,visiblesun,noclouds,1,"747.0261697065821,500",
,,,,,,,de,de,de,m,32,,2021-07-14_09h12.34.145,online_experiment,2021.1.4,Linux x86_64,59.91252771,FALSE,,"Mozilla/5.0 (X11; Fedora; Linux x86_64) AppleWebKit/537.36 (KHTML, like Gecko) Chrome/81.0.4044.138 Safari/537.36",1680,947,1680,1050,,,,,,,,8,2.504025,0.420952381,-0.41047619,1,0,0,next_trial_button,0,9,9,38,1,landscape,visiblesun,noclouds,4,"733.3333333333333,500",
,,,,,,,de,de,de,m,32,,2021-07-14_09h12.34.145,online_experiment,2021.1.4,Linux x86_64,59.91252771,FALSE,,"Mozilla/5.0 (X11; Fedora; Linux x86_64) AppleWebKit/537.36 (KHTML, like Gecko) Chrome/81.0.4044.138 Safari/537.36",1680,947,1680,1050,,,,,,,,9,2.388825,0.403809524,-0.415238095,1,0,0,next_trial_button,0,10,10,5,1,landscape,invisiblesun,yesclouds,0,"750.4690431519699,500",
,,,,,,,de,de,de,m,32,,2021-07-14_09h12.34.145,online_experiment,2021.1.4,Linux x86_64,59.91252771,FALSE,,"Mozilla/5.0 (X11; Fedora; Linux x86_64) AppleWebKit/537.36 (KHTML, like Gecko) Chrome/81.0.4044.138 Safari/537.36",1680,947,1680,1050,,,,,,,,5,2.32168,0.423809524,-0.419047619,1,0,0,next_trial_button,0,11,11,0,1,beach,invisiblesun,noclouds,0,"750,500",
,,,,,,,de,de,de,m,32,,2021-07-14_09h12.34.145,online_experiment,2021.1.4,Linux x86_64,59.91252771,FALSE,,"Mozilla/5.0 (X11; Fedora; Linux x86_64) AppleWebKit/537.36 (KHTML, like Gecko) Chrome/81.0.4044.138 Safari/537.36",1680,947,1680,1050,,,,,,,,7,4.63321,0.400952381,-0.416190476,1,0,0,next_trial_button,0,12,12,44,1,landscape,invisiblesun,noclouds,5,"666.6666666666666,500",
,,,,,,,de,de,de,m,32,,2021-07-14_09h12.34.145,online_experiment,2021.1.4,Linux x86_64,59.91252771,FALSE,,"Mozilla/5.0 (X11; Fedora; Linux x86_64) AppleWebKit/537.36 (KHTML, like Gecko) Chrome/81.0.4044.138 Safari/537.36",1680,947,1680,1050,,,,,,,,6,3.65576,0.425714286,-0.412380952,1,0,0,next_trial_button,0,13,13,72,1,beach,invisiblesun,noclouds,9,"888.8888888888888,500",
,,,,,,,de,de,de,m,32,,2021-07-14_09h12.34.145,online_experiment,2021.1.4,Linux x86_64,59.91252771,FALSE,,"Mozilla/5.0 (X11; Fedora; Linux x86_64) AppleWebKit/537.36 (KHTML, like Gecko) Chrome/81.0.4044.138 Safari/537.36",1680,947,1680,1050,,,,,,,,9,1.861565,0.402857143,-0.414285714,1,0,0,next_trial_button,0,14,14,13,1,landscape,invisiblesun,yesclouds,1,"783.1192660550458,500",
,,,,,,,de,de,de,m,32,,2021-07-14_09h12.34.145,online_experiment,2021.1.4,Linux x86_64,59.91252771,FALSE,,"Mozilla/5.0 (X11; Fedora; Linux x86_64) AppleWebKit/537.36 (KHTML, like Gecko) Chrome/81.0.4044.138 Safari/537.36",1680,947,1680,1050,,,,,,,,5,2.30842,0.351428571,-0.41047619,1,0,0,next_trial_button,0,15,15,26,1,beach,visiblesun,noclouds,3,"888.8888888888888,500",
,,,,,,,de,de,de,m,32,,2021-07-14_09h12.34.145,online_experiment,2021.1.4,Linux x86_64,59.91252771,FALSE,,"Mozilla/5.0 (X11; Fedora; Linux x86_64) AppleWebKit/537.36 (KHTML, like Gecko) Chrome/81.0.4044.138 Safari/537.36",1680,947,1680,1050,,,,,,,,7,2.6395,0.419047619,-0.440952381,1,0,0,next_trial_button,0,16,16,79,1,landscape,visiblesun,yesclouds,9,"1028.5714285714284,500",
,,,,,,,de,de,de,m,32,,2021-07-14_09h12.34.145,online_experiment,2021.1.4,Linux x86_64,59.91252771,FALSE,,"Mozilla/5.0 (X11; Fedora; Linux x86_64) AppleWebKit/537.36 (KHTML, like Gecko) Chrome/81.0.4044.138 Safari/537.36",1680,947,1680,1050,,,,,,,,8,9.5327,0.4,-0.445714286,1,0,0,next_trial_button,0,17,17,77,1,landscape,invisiblesun,yesclouds,9,"888.8888888888888,500",
,,,,,,,de,de,de,m,32,,2021-07-14_09h12.34.145,online_experiment,2021.1.4,Linux x86_64,59.91252771,FALSE,,"Mozilla/5.0 (X11; Fedora; Linux x86_64) AppleWebKit/537.36 (KHTML, like Gecko) Chrome/81.0.4044.138 Safari/537.36",1680,947,1680,1050,,,,,,,,3,3.86511,0.347619048,-0.425714286,1,0,0,next_trial_button,0,18,18,3,1,beach,visiblesun,yesclouds,0,"1152.5122276567363,500",
,,,,,,,de,de,de,m,32,,2021-07-14_09h12.34.145,online_experiment,2021.1.4,Linux x86_64,59.91252771,FALSE,,"Mozilla/5.0 (X11; Fedora; Linux x86_64) AppleWebKit/537.36 (KHTML, like Gecko) Chrome/81.0.4044.138 Safari/537.36",1680,947,1680,1050,,,,,,,,4,9.623185,0.448571429,-0.433333333,1,0,0,next_trial_button,0,19,19,33,1,beach,invisiblesun,yesclouds,4,"751.5473032714411,500",
,,,,,,,de,de,de,m,32,,2021-07-14_09h12.34.145,online_experiment,2021.1.4,Linux x86_64,59.91252771,FALSE,,"Mozilla/5.0 (X11; Fedora; Linux x86_64) AppleWebKit/537.36 (KHTML, like Gecko) Chrome/81.0.4044.138 Safari/537.36",1680,947,1680,1050,,,,,,,,8,2.17926,0.400952381,-0.415238095,1,0,0,next_trial_button,0,20,20,45,1,landscape,invisiblesun,yesclouds,5,"749.6251874062968,500",
,,,,,,,de,de,de,m,32,,2021-07-14_09h12.34.145,online_experiment,2021.1.4,Linux x86_64,59.91252771,FALSE,,"Mozilla/5.0 (X11; Fedora; Linux x86_64) AppleWebKit/537.36 (KHTML, like Gecko) Chrome/81.0.4044.138 Safari/537.36",1680,947,1680,1050,,,,,,,,5,96.289455,0.46,-0.393333333,1,0,0,next_trial_button,0,21,21,21,1,landscape,invisiblesun,yesclouds,2,"750,500",
,,,,,,,de,de,de,m,32,,2021-07-14_09h12.34.145,online_experiment,2021.1.4,Linux x86_64,59.91252771,FALSE,,"Mozilla/5.0 (X11; Fedora; Linux x86_64) AppleWebKit/537.36 (KHTML, like Gecko) Chrome/81.0.4044.138 Safari/537.36",1680,947,1680,1050,,,,,,,,5,2.54734,0.420952381,-0.422857143,1,0,0,next_trial_button,0,22,22,62,1,landscape,visiblesun,noclouds,7,"417.42389822807814,500",
,,,,,,,de,de,de,m,32,,2021-07-14_09h12.34.145,online_experiment,2021.1.4,Linux x86_64,59.91252771,FALSE,,"Mozilla/5.0 (X11; Fedora; Linux x86_64) AppleWebKit/537.36 (KHTML, like Gecko) Chrome/81.0.4044.138 Safari/537.36",1680,947,1680,1050,,,,,,,,6,1.81624,0.388571429,-0.437142857,1,0,0,next_trial_button,0,23,23,8,1,beach,invisiblesun,noclouds,1,"1215.1898734177216,500",
,,,,,,,de,de,de,m,32,,2021-07-14_09h12.34.145,online_experiment,2021.1.4,Linux x86_64,59.91252771,FALSE,,"Mozilla/5.0 (X11; Fedora; Linux x86_64) AppleWebKit/537.36 (KHTML, like Gecko) Chrome/81.0.4044.138 Safari/537.36",1680,947,1680,1050,,,,,,,,6,2.864375,0.39047619,-0.439047619,1,0,0,next_trial_button,0,24,24,32,1,beach,invisiblesun,noclouds,4,"750,500",
,,,,,,,de,de,de,m,32,,2021-07-14_09h12.34.145,online_experiment,2021.1.4,Linux x86_64,59.91252771,FALSE,,"Mozilla/5.0 (X11; Fedora; Linux x86_64) AppleWebKit/537.36 (KHTML, like Gecko) Chrome/81.0.4044.138 Safari/537.36",1680,947,1680,1050,,,,,,,,3,1.974925,0.437142857,-0.422857143,1,0,0,next_trial_button,0,25,25,51,1,beach,visiblesun,yesclouds,6,"657.1279916753382,500",
,,,,,,,de,de,de,m,32,,2021-07-14_09h12.34.145,online_experiment,2021.1.4,Linux x86_64,59.91252771,FALSE,,"Mozilla/5.0 (X11; Fedora; Linux x86_64) AppleWebKit/537.36 (KHTML, like Gecko) Chrome/81.0.4044.138 Safari/537.36",1680,947,1680,1050,,,,,,,,8,2.536025,0.41047619,-0.433333333,1,0,0,next_trial_button,0,26,26,53,1,landscape,invisiblesun,yesclouds,6,"750.0695023630803,500",
,,,,,,,de,de,de,m,32,,2021-07-14_09h12.34.145,online_experiment,2021.1.4,Linux x86_64,59.91252771,FALSE,,"Mozilla/5.0 (X11; Fedora; Linux x86_64) AppleWebKit/537.36 (KHTML, like Gecko) Chrome/81.0.4044.138 Safari/537.36",1680,947,1680,1050,,,,,,,,8,1.9529,0.412380952,-0.402857143,1,0,0,next_trial_button,0,27,27,15,1,landscape,visiblesun,yesclouds,1,"333.3333333333333,500",
,,,,,,,de,de,de,m,32,,2021-07-14_09h12.34.145,online_experiment,2021.1.4,Linux x86_64,59.91252771,FALSE,,"Mozilla/5.0 (X11; Fedora; Linux x86_64) AppleWebKit/537.36 (KHTML, like Gecko) Chrome/81.0.4044.138 Safari/537.36",1680,947,1680,1050,,,,,,,,9,38.55685,0.435238095,-0.43047619,1,0,0,next_trial_button,0,28,28,37,1,landscape,invisiblesun,yesclouds,4,"669.4214876033058,500",
,,,,,,,de,de,de,m,32,,2021-07-14_09h12.34.145,online_experiment,2021.1.4,Linux x86_64,59.91252771,FALSE,,"Mozilla/5.0 (X11; Fedora; Linux x86_64) AppleWebKit/537.36 (KHTML, like Gecko) Chrome/81.0.4044.138 Safari/537.36",1680,947,1680,1050,,,,,,,,3,2.15787,0.418095238,-0.422857143,1,0,0,next_trial_button,0,29,29,24,1,beach,invisiblesun,noclouds,3,"750.089190153407,500",
,,,,,,,de,de,de,m,32,,2021-07-14_09h12.34.145,online_experiment,2021.1.4,Linux x86_64,59.91252771,FALSE,,"Mozilla/5.0 (X11; Fedora; Linux x86_64) AppleWebKit/537.36 (KHTML, like Gecko) Chrome/81.0.4044.138 Safari/537.36",1680,947,1680,1050,,,,,,,,3,2.279945,0.398095238,-0.411428571,1,0,0,next_trial_button,0,30,30,56,1,beach,invisiblesun,noclouds,7,"1028.5714285714284,500",
,,,,,,,de,de,de,m,32,,2021-07-14_09h12.34.145,online_experiment,2021.1.4,Linux x86_64,59.91252771,FALSE,,"Mozilla/5.0 (X11; Fedora; Linux x86_64) AppleWebKit/537.36 (KHTML, like Gecko) Chrome/81.0.4044.138 Safari/537.36",1680,947,1680,1050,,,,,,,,2,1.82584,0.420952381,-0.44,1,0,0,next_trial_button,0,31,31,34,1,beach,visiblesun,noclouds,4,"749.6251874062968,500",
,,,,,,,de,de,de,m,32,,2021-07-14_09h12.34.145,online_experiment,2021.1.4,Linux x86_64,59.91252771,FALSE,,"Mozilla/5.0 (X11; Fedora; Linux x86_64) AppleWebKit/537.36 (KHTML, like Gecko) Chrome/81.0.4044.138 Safari/537.36",1680,947,1680,1050,,,,,,,,1,2.201385,0.373333333,-0.44,1,0,0,next_trial_button,0,32,32,19,1,beach,visiblesun,yesclouds,2,"770.1393095093882,500",
,,,,,,,de,de,de,m,32,,2021-07-14_09h12.34.145,online_experiment,2021.1.4,Linux x86_64,59.91252771,FALSE,,"Mozilla/5.0 (X11; Fedora; Linux x86_64) AppleWebKit/537.36 (KHTML, like Gecko) Chrome/81.0.4044.138 Safari/537.36",1680,947,1680,1050,,,,,,,,7,335.83574,0.362857143,-0.415238095,1,0,0,next_trial_button,0,33,33,71,1,landscape,visiblesun,yesclouds,8,"666.6666666666666,500",
,,,,,,,de,de,de,m,32,,2021-07-14_09h12.34.145,online_experiment,2021.1.4,Linux x86_64,59.91252771,FALSE,,"Mozilla/5.0 (X11; Fedora; Linux x86_64) AppleWebKit/537.36 (KHTML, like Gecko) Chrome/81.0.4044.138 Safari/537.36",1680,947,1680,1050,,,,,,,,6,2.32398,0.44,-0.412380952,1,0,0,next_trial_button,0,34,34,31,1,landscape,visiblesun,yesclouds,3,"638.0622837370242,500",
,,,,,,,de,de,de,m,32,,2021-07-14_09h12.34.145,online_experiment,2021.1.4,Linux x86_64,59.91252771,FALSE,,"Mozilla/5.0 (X11; Fedora; Linux x86_64) AppleWebKit/537.36 (KHTML, like Gecko) Chrome/81.0.4044.138 Safari/537.36",1680,947,1680,1050,,,,,,,,5,2.56495,0.391428571,-0.398095238,1,0,0,next_trial_button,0,35,35,17,1,beach,invisiblesun,yesclouds,2,"684.8635235732011,500",
,,,,,,,de,de,de,m,32,,2021-07-14_09h12.34.145,online_experiment,2021.1.4,Linux x86_64,59.91252771,FALSE,,"Mozilla/5.0 (X11; Fedora; Linux x86_64) AppleWebKit/537.36 (KHTML, like Gecko) Chrome/81.0.4044.138 Safari/537.36",1680,947,1680,1050,,,,,,,,4,29.442555,0.464761905,-0.408571429,1,0,0,next_trial_button,0,36,36,42,1,beach,visiblesun,noclouds,5,"834.4594594594595,500",
,,,,,,,de,de,de,m,32,,2021-07-14_09h12.34.145,online_experiment,2021.1.4,Linux x86_64,59.91252771,FALSE,,"Mozilla/5.0 (X11; Fedora; Linux x86_64) AppleWebKit/537.36 (KHTML, like Gecko) Chrome/81.0.4044.138 Safari/537.36",1680,947,1680,1050,,,,,,,,4,1.89171,0.379047619,-0.413333333,1,0,0,next_trial_button,0,37,37,49,1,beach,invisiblesun,yesclouds,6,"858.4474885844749,500",
,,,,,,,de,de,de,m,32,,2021-07-14_09h12.34.145,online_experiment,2021.1.4,Linux x86_64,59.91252771,FALSE,,"Mozilla/5.0 (X11; Fedora; Linux x86_64) AppleWebKit/537.36 (KHTML, like Gecko) Chrome/81.0.4044.138 Safari/537.36",1680,947,1680,1050,,,,,,,,8,2.162335,0.497142857,-0.401904762,1,0,0,next_trial_button,0,38,38,68,1,landscape,invisiblesun,noclouds,8,"666.6666666666666,500",
,,,,,,,de,de,de,m,32,,2021-07-14_09h12.34.145,online_experiment,2021.1.4,Linux x86_64,59.91252771,FALSE,,"Mozilla/5.0 (X11; Fedora; Linux x86_64) AppleWebKit/537.36 (KHTML, like Gecko) Chrome/81.0.4044.138 Safari/537.36",1680,947,1680,1050,,,,,,,,3,2.14357,0.374285714,-0.422857143,1,0,0,next_trial_button,0,39,39,27,1,beach,visiblesun,yesclouds,3,"752.8089887640449,500",
,,,,,,,de,de,de,m,32,,2021-07-14_09h12.34.145,online_experiment,2021.1.4,Linux x86_64,59.91252771,FALSE,,"Mozilla/5.0 (X11; Fedora; Linux x86_64) AppleWebKit/537.36 (KHTML, like Gecko) Chrome/81.0.4044.138 Safari/537.36",1680,947,1680,1050,,,,,,,,8,36.20766,0.420952381,-0.411428571,1,0,0,next_trial_button,0,40,40,23,1,landscape,visiblesun,yesclouds,2,"767.97829036635,500",
,,,,,,,de,de,de,m,32,,2021-07-14_09h12.34.145,online_experiment,2021.1.4,Linux x86_64,59.91252771,FALSE,,"Mozilla/5.0 (X11; Fedora; Linux x86_64) AppleWebKit/537.36 (KHTML, like Gecko) Chrome/81.0.4044.138 Safari/537.36",1680,947,1680,1050,,,,,,,,2,4.30184,0.360952381,-0.40952381,1,0,0,next_trial_button,0,41,41,30,1,landscape,visiblesun,noclouds,3,"346.3035019455253,500",
,,,,,,,de,de,de,m,32,,2021-07-14_09h12.34.145,online_experiment,2021.1.4,Linux x86_64,59.91252771,FALSE,,"Mozilla/5.0 (X11; Fedora; Linux x86_64) AppleWebKit/537.36 (KHTML, like Gecko) Chrome/81.0.4044.138 Safari/537.36",1680,947,1680,1050,,,,,,,,2,3.076535,0.378095238,-0.428571429,1,0,0,next_trial_button,0,42,42,50,1,beach,visiblesun,noclouds,6,"666.6666666666666,500",
,,,,,,,de,de,de,m,32,,2021-07-14_09h12.34.145,online_experiment,2021.1.4,Linux x86_64,59.91252771,FALSE,,"Mozilla/5.0 (X11; Fedora; Linux x86_64) AppleWebKit/537.36 (KHTML, like Gecko) Chrome/81.0.4044.138 Safari/537.36",1680,947,1680,1050,,,,,,,,4,2.57383,0.40952381,-0.422857143,1,0,0,next_trial_button,0,43,43,11,1,beach,visiblesun,yesclouds,1,"989.8132427843803,500",
,,,,,,,de,de,de,m,32,,2021-07-14_09h12.34.145,online_experiment,2021.1.4,Linux x86_64,59.91252771,FALSE,,"Mozilla/5.0 (X11; Fedora; Linux x86_64) AppleWebKit/537.36 (KHTML, like Gecko) Chrome/81.0.4044.138 Safari/537.36",1680,947,1680,1050,,,,,,,,7,2.877435,0.465714286,-0.401904762,1,0,0,next_trial_button,0,44,44,70,1,landscape,visiblesun,noclouds,8,"666.6666666666666,500",
,,,,,,,de,de,de,m,32,,2021-07-14_09h12.34.145,online_experiment,2021.1.4,Linux x86_64,59.91252771,FALSE,,"Mozilla/5.0 (X11; Fedora; Linux x86_64) AppleWebKit/537.36 (KHTML, like Gecko) Chrome/81.0.4044.138 Safari/537.36",1680,947,1680,1050,,,,,,,,6,7.810335,0.462857143,-0.428571429,1,0,0,next_trial_button,0,45,45,47,1,landscape,visiblesun,yesclouds,5,"666.6666666666666,500",
,,,,,,,de,de,de,m,32,,2021-07-14_09h12.34.145,online_experiment,2021.1.4,Linux x86_64,59.91252771,FALSE,,"Mozilla/5.0 (X11; Fedora; Linux x86_64) AppleWebKit/537.36 (KHTML, like Gecko) Chrome/81.0.4044.138 Safari/537.36",1680,947,1680,1050,,,,,,,,3,1.950715,0.403809524,-0.419047619,1,0,0,next_trial_button,0,46,46,18,1,beach,visiblesun,noclouds,2,"666.6666666666666,500",
,,,,,,,de,de,de,m,32,,2021-07-14_09h12.34.145,online_experiment,2021.1.4,Linux x86_64,59.91252771,FALSE,,"Mozilla/5.0 (X11; Fedora; Linux x86_64) AppleWebKit/537.36 (KHTML, like Gecko) Chrome/81.0.4044.138 Safari/537.36",1680,947,1680,1050,,,,,,,,8,2.07633,0.417142857,-0.423809524,1,0,0,next_trial_button,0,47,47,12,1,landscape,invisiblesun,noclouds,1,"666.6666666666666,500",
,,,,,,,de,de,de,m,32,,2021-07-14_09h12.34.145,online_experiment,2021.1.4,Linux x86_64,59.91252771,FALSE,,"Mozilla/5.0 (X11; Fedora; Linux x86_64) AppleWebKit/537.36 (KHTML, like Gecko) Chrome/81.0.4044.138 Safari/537.36",1680,947,1680,1050,,,,,,,,4,3.88301,0.380952381,-0.403809524,1,0,0,next_trial_button,0,48,48,39,1,landscape,visiblesun,yesclouds,4,"749.7656982193065,500",
,,,,,,,de,de,de,m,32,,2021-07-14_09h12.34.145,online_experiment,2021.1.4,Linux x86_64,59.91252771,FALSE,,"Mozilla/5.0 (X11; Fedora; Linux x86_64) AppleWebKit/537.36 (KHTML, like Gecko) Chrome/81.0.4044.138 Safari/537.36",1680,947,1680,1050,,,,,,,,5,2.662495,0.380952381,-0.40952381,1,0,0,next_trial_button,0,49,49,55,1,landscape,visiblesun,yesclouds,6,"749.8819083608881,500",
,,,,,,,de,de,de,m,32,,2021-07-14_09h12.34.145,online_experiment,2021.1.4,Linux x86_64,59.91252771,FALSE,,"Mozilla/5.0 (X11; Fedora; Linux x86_64) AppleWebKit/537.36 (KHTML, like Gecko) Chrome/81.0.4044.138 Safari/537.36",1680,947,1680,1050,,,,,,,,3,2.56491,0.382857143,-0.42,1,0,0,next_trial_button,0,50,50,65,1,beach,invisiblesun,yesclouds,8,"750,500",
,,,,,,,de,de,de,m,32,,2021-07-14_09h12.34.145,online_experiment,2021.1.4,Linux x86_64,59.91252771,FALSE,,"Mozilla/5.0 (X11; Fedora; Linux x86_64) AppleWebKit/537.36 (KHTML, like Gecko) Chrome/81.0.4044.138 Safari/537.36",1680,947,1680,1050,,,,,,,,5,75.46964,0.408658923,-0.420802534,1,0,0,next_trial_button,0,51,51,36,1,landscape,invisiblesun,noclouds,4,"281.25,500",
,,,,,,,de,de,de,m,32,,2021-07-14_09h12.34.145,online_experiment,2021.1.4,Linux x86_64,59.91252771,FALSE,,"Mozilla/5.0 (X11; Fedora; Linux x86_64) AppleWebKit/537.36 (KHTML, like Gecko) Chrome/81.0.4044.138 Safari/537.36",1680,947,1680,1050,,,,,,,,3,2.197285,0.450897571,-0.410242872,1,0,0,next_trial_button,0,52,52,73,1,beach,invisiblesun,yesclouds,9,"1028.5714285714284,500",
,,,,,,,de,de,de,m,32,,2021-07-14_09h12.34.145,online_experiment,2021.1.4,Linux x86_64,59.91252771,FALSE,,"Mozilla/5.0 (X11; Fedora; Linux x86_64) AppleWebKit/537.36 (KHTML, like Gecko) Chrome/81.0.4044.138 Safari/537.36",1680,947,1680,1050,,,,,,,,4,2.75365,0.324181626,-0.428194298,1,0,0,next_trial_button,0,53,53,43,1,beach,visiblesun,yesclouds,5,"750,500",
,,,,,,,de,de,de,m,32,,2021-07-14_09h12.34.145,online_experiment,2021.1.4,Linux x86_64,59.91252771,FALSE,,"Mozilla/5.0 (X11; Fedora; Linux x86_64) AppleWebKit/537.36 (KHTML, like Gecko) Chrome/81.0.4044.138 Safari/537.36",1680,947,1680,1050,,,,,,,,5,5.954805,0.426610348,-0.441921859,1,0,0,next_trial_button,0,54,54,48,1,beach,invisiblesun,noclouds,6,"1028.5714285714284,500",
,,,,,,,de,de,de,m,32,,2021-07-14_09h12.34.145,online_experiment,2021.1.4,Linux x86_64,59.91252771,FALSE,,"Mozilla/5.0 (X11; Fedora; Linux x86_64) AppleWebKit/537.36 (KHTML, like Gecko) Chrome/81.0.4044.138 Safari/537.36",1680,947,1680,1050,,,,,,,,7,2.131125,0.393875396,-0.426082365,1,0,0,next_trial_button,0,55,55,4,1,landscape,invisiblesun,noclouds,0,"1499.6127033307514,500",
,,,,,,,de,de,de,m,32,,2021-07-14_09h12.34.145,online_experiment,2021.1.4,Linux x86_64,59.91252771,FALSE,,"Mozilla/5.0 (X11; Fedora; Linux x86_64) AppleWebKit/537.36 (KHTML, like Gecko) Chrome/81.0.4044.138 Safari/537.36",1680,947,1680,1050,,,,,,,,7,4.3855,0.380147835,-0.409186906,1,0,0,next_trial_button,0,56,56,69,1,landscape,invisiblesun,yesclouds,8,"750,500",
,,,,,,,de,de,de,m,32,,2021-07-14_09h12.34.145,online_experiment,2021.1.4,Linux x86_64,59.91252771,FALSE,,"Mozilla/5.0 (X11; Fedora; Linux x86_64) AppleWebKit/537.36 (KHTML, like Gecko) Chrome/81.0.4044.138 Safari/537.36",1680,947,1680,1050,,,,,,,,8,2.00145,0.417106653,-0.403907075,1,0,0,next_trial_button,0,57,57,22,1,landscape,visiblesun,noclouds,2,"749.3333333333333,500",
,,,,,,,de,de,de,m,32,,2021-07-14_09h12.34.145,online_experiment,2021.1.4,Linux x86_64,59.91252771,FALSE,,"Mozilla/5.0 (X11; Fedora; Linux x86_64) AppleWebKit/537.36 (KHTML, like Gecko) Chrome/81.0.4044.138 Safari/537.36",1680,947,1680,1050,,,,,,,,10,1.8717,0.391763464,-0.43875396,1,0,0,next_trial_button,0,58,58,14,1,landscape,visiblesun,noclouds,1,"745.9919839679359,500",
,,,,,,,de,de,de,m,32,,2021-07-14_09h12.34.145,online_experiment,2021.1.4,Linux x86_64,59.91252771,FALSE,,"Mozilla/5.0 (X11; Fedora; Linux x86_64) AppleWebKit/537.36 (KHTML, like Gecko) Chrome/81.0.4044.138 Safari/537.36",1680,947,1680,1050,,,,,,,,8,2.360945,0.482576558,-0.428194298,1,0,0,next_trial_button,0,59,59,60,1,landscape,invisiblesun,noclouds,7,"666.7268134247564,500",
,,,,,,,de,de,de,m,32,,2021-07-14_09h12.34.145,online_experiment,2021.1.4,Linux x86_64,59.91252771,FALSE,,"Mozilla/5.0 (X11; Fedora; Linux x86_64) AppleWebKit/537.36 (KHTML, like Gecko) Chrome/81.0.4044.138 Safari/537.36",1680,947,1680,1050,,,,,,,,4,2.06872,0.399155227,-0.434530095,1,0,0,next_trial_button,0,60,60,9,1,beach,invisiblesun,yesclouds,1,"750,500",
,,,,,,,de,de,de,m,32,,2021-07-14_09h12.34.145,online_experiment,2021.1.4,Linux x86_64,59.91252771,FALSE,,"Mozilla/5.0 (X11; Fedora; Linux x86_64) AppleWebKit/537.36 (KHTML, like Gecko) Chrome/81.0.4044.138 Safari/537.36",1680,947,1680,1050,,,,,,,,2,2.075965,0.374868004,-0.411298838,1,0,0,next_trial_button,0,61,61,2,1,beach,visiblesun,noclouds,0,"375,500",
,,,,,,,de,de,de,m,32,,2021-07-14_09h12.34.145,online_experiment,2021.1.4,Linux x86_64,59.91252771,FALSE,,"Mozilla/5.0 (X11; Fedora; Linux x86_64) AppleWebKit/537.36 (KHTML, like Gecko) Chrome/81.0.4044.138 Safari/537.36",1680,947,1680,1050,,,,,,,,4,4.77439,0.315733897,-0.401795143,1,0,0,next_trial_button,0,62,62,46,1,landscape,visiblesun,noclouds,5,"750,500",
,,,,,,,de,de,de,m,32,,2021-07-14_09h12.34.145,online_experiment,2021.1.4,Linux x86_64,59.91252771,FALSE,,"Mozilla/5.0 (X11; Fedora; Linux x86_64) AppleWebKit/537.36 (KHTML, like Gecko) Chrome/81.0.4044.138 Safari/537.36",1680,947,1680,1050,,,,,,,,5,2.27407,0.368532207,-0.412354805,1,0,0,next_trial_button,0,63,63,28,1,landscape,invisiblesun,noclouds,3,"888.8888888888888,500",
,,,,,,,de,de,de,m,32,,2021-07-14_09h12.34.145,online_experiment,2021.1.4,Linux x86_64,59.91252771,FALSE,,"Mozilla/5.0 (X11; Fedora; Linux x86_64) AppleWebKit/537.36 (KHTML, like Gecko) Chrome/81.0.4044.138 Safari/537.36",1680,947,1680,1050,,,,,,,,7,1.96085,0.404435058,-0.428194298,1,0,0,next_trial_button,0,64,64,29,1,landscape,invisiblesun,yesclouds,3,"749.8660953401178,500",
,,,,,,,de,de,de,m,32,,2021-07-14_09h12.34.145,online_experiment,2021.1.4,Linux x86_64,59.91252771,FALSE,,"Mozilla/5.0 (X11; Fedora; Linux x86_64) AppleWebKit/537.36 (KHTML, like Gecko) Chrome/81.0.4044.138 Safari/537.36",1680,947,1680,1050,,,,,,,,3,2.19464,0.369588173,-0.400739176,1,0,0,next_trial_button,0,65,65,59,1,beach,visiblesun,yesclouds,7,"888.9689978370584,500",
,,,,,,,de,de,de,m,32,,2021-07-14_09h12.34.145,online_experiment,2021.1.4,Linux x86_64,59.91252771,FALSE,,"Mozilla/5.0 (X11; Fedora; Linux x86_64) AppleWebKit/537.36 (KHTML, like Gecko) Chrome/81.0.4044.138 Safari/537.36",1680,947,1680,1050,,,,,,,,4,1.80178,0.442449842,-0.409186906,1,0,0,next_trial_button,0,66,66,7,1,landscape,visiblesun,yesclouds,0,"743.421052631579,500",
,,,,,,,de,de,de,m,32,,2021-07-14_09h12.34.145,online_experiment,2021.1.4,Linux x86_64,59.91252771,FALSE,,"Mozilla/5.0 (X11; Fedora; Linux x86_64) AppleWebKit/537.36 (KHTML, like Gecko) Chrome/81.0.4044.138 Safari/537.36",1680,947,1680,1050,,,,,,,,6,1.84279,0.517423442,-0.40813094,1,0,0,next_trial_button,0,67,67,41,1,beach,invisiblesun,yesclouds,5,"1248.4394506866417,500",
,,,,,,,de,de,de,m,32,,2021-07-14_09h12.34.145,online_experiment,2021.1.4,Linux x86_64,59.91252771,FALSE,,"Mozilla/5.0 (X11; Fedora; Linux x86_64) AppleWebKit/537.36 (KHTML, like Gecko) Chrome/81.0.4044.138 Safari/537.36",1680,947,1680,1050,,,,,,,,4,5.554965,0.351636748,-0.437697994,1,0,0,next_trial_button,0,68,68,1,1,beach,invisiblesun,yesclouds,0,"666.6666666666666,500",
,,,,,,,de,de,de,m,32,,2021-07-14_09h12.34.145,online_experiment,2021.1.4,Linux x86_64,59.91252771,FALSE,,"Mozilla/5.0 (X11; Fedora; Linux x86_64) AppleWebKit/537.36 (KHTML, like Gecko) Chrome/81.0.4044.138 Safari/537.36",1680,947,1680,1050,,,,,,,,6,1.92208,0.418162619,-0.407074974,1,0,0,next_trial_button,0,69,69,54,1,landscape,visiblesun,noclouds,6,"695.0043821209465,500",
,,,,,,,de,de,de,m,32,,2021-07-14_09h12.34.145,online_experiment,2021.1.4,Linux x86_64,59.91252771,FALSE,,"Mozilla/5.0 (X11; Fedora; Linux x86_64) AppleWebKit/537.36 (KHTML, like Gecko) Chrome/81.0.4044.138 Safari/537.36",1680,947,1680,1050,,,,,,,,5,2.16048,0.400211193,-0.400739176,1,0,0,next_trial_button,0,70,70,52,1,landscape,invisiblesun,noclouds,6,"666.6666666666666,500",
,,,,,,,de,de,de,m,32,,2021-07-14_09h12.34.145,online_experiment,2021.1.4,Linux x86_64,59.91252771,FALSE,,"Mozilla/5.0 (X11; Fedora; Linux x86_64) AppleWebKit/537.36 (KHTML, like Gecko) Chrome/81.0.4044.138 Safari/537.36",1680,947,1680,1050,,,,,,,,3,2.60151,0.436114044,-0.414466737,1,0,0,next_trial_button,0,71,71,67,1,beach,visiblesun,yesclouds,8,"748.1481481481482,500",
,,,,,,,de,de,de,m,32,,2021-07-14_09h12.34.145,online_experiment,2021.1.4,Linux x86_64,59.91252771,FALSE,,"Mozilla/5.0 (X11; Fedora; Linux x86_64) AppleWebKit/537.36 (KHTML, like Gecko) Chrome/81.0.4044.138 Safari/537.36",1680,947,1680,1050,,,,,,,,4,17.54312,0.400211193,-0.40813094,1,0,0,next_trial_button,0,72,72,66,1,beach,visiblesun,noclouds,8,"1028.5714285714284,500",
,,,,,,,de,de,de,m,32,,2021-07-14_09h12.34.145,online_experiment,2021.1.4,Linux x86_64,59.91252771,FALSE,,"Mozilla/5.0 (X11; Fedora; Linux x86_64) AppleWebKit/537.36 (KHTML, like Gecko) Chrome/81.0.4044.138 Safari/537.36",1680,947,1680,1050,,,,,,,,5,2.19709,0.381203801,-0.431362196,1,0,0,next_trial_button,0,73,73,63,1,landscape,visiblesun,yesclouds,7,"331.94444444444446,500",
,,,,,,,de,de,de,m,32,,2021-07-14_09h12.34.145,online_experiment,2021.1.4,Linux x86_64,59.91252771,FALSE,,"Mozilla/5.0 (X11; Fedora; Linux x86_64) AppleWebKit/537.36 (KHTML, like Gecko) Chrome/81.0.4044.138 Safari/537.36",1680,947,1680,1050,,,,,,,,3,4.340425,0.408658923,-0.432418163,1,0,0,next_trial_button,0,74,74,57,1,beach,invisiblesun,yesclouds,7,"749.707488299532,500",
,,,,,,,de,de,de,m,32,,2021-07-14_09h12.34.145,online_experiment,2021.1.4,Linux x86_64,59.91252771,FALSE,,"Mozilla/5.0 (X11; Fedora; Linux x86_64) AppleWebKit/537.36 (KHTML, like Gecko) Chrome/81.0.4044.138 Safari/537.36",1680,947,1680,1050,,,,,,,,3,2.805805,0.421330517,-0.442977825,1,0,0,next_trial_button,0,75,75,64,1,beach,invisiblesun,noclouds,8,"1028.5714285714284,500",
,,,,,,,de,de,de,m,32,,2021-07-14_09h12.34.145,online_experiment,2021.1.4,Linux x86_64,59.91252771,FALSE,,"Mozilla/5.0 (X11; Fedora; Linux x86_64) AppleWebKit/537.36 (KHTML, like Gecko) Chrome/81.0.4044.138 Safari/537.36",1680,947,1680,1050,,,,,,,,6,7.284545,0.37592397,-0.423970433,1,0,0,next_trial_button,0,76,76,61,1,landscape,invisiblesun,yesclouds,7,"500,500",
,,,,,,,de,de,de,m,32,,2021-07-14_09h12.34.145,online_experiment,2021.1.4,Linux x86_64,59.91252771,FALSE,,"Mozilla/5.0 (X11; Fedora; Linux x86_64) AppleWebKit/537.36 (KHTML, like Gecko) Chrome/81.0.4044.138 Safari/537.36",1680,947,1680,1050,,,,,,,,5,2.31579,0.394931362,-0.425026399,1,0,0,next_trial_button,0,77,77,16,1,beach,invisiblesun,noclouds,2,"752.8089887640449,500",
,,,,,,,de,de,de,m,32,,2021-07-14_09h12.34.145,online_experiment,2021.1.4,Linux x86_64,59.91252771,FALSE,,"Mozilla/5.0 (X11; Fedora; Linux x86_64) AppleWebKit/537.36 (KHTML, like Gecko) Chrome/81.0.4044.138 Safari/537.36",1680,947,1680,1050,,,,,,,,7,1.701575,0.428722281,-0.422914467,1,0,0,next_trial_button,0,78,78,35,1,beach,visiblesun,yesclouds,4,"750,500",
,,,,,,,de,de,de,m,32,,2021-07-14_09h12.34.145,online_experiment,2021.1.4,Linux x86_64,59.91252771,FALSE,,"Mozilla/5.0 (X11; Fedora; Linux x86_64) AppleWebKit/537.36 (KHTML, like Gecko) Chrome/81.0.4044.138 Safari/537.36",1680,947,1680,1050,,,,,,,,8,2.35585,0.3843717,-0.416578669,1,0,0,next_trial_button,0,79,79,78,1,landscape,visiblesun,noclouds,9,"666.6666666666666,500",
,,,,,,,de,de,de,m,32,,2021-07-14_09h12.34.145,online_experiment,2021.1.4,Linux x86_64,59.91252771,FALSE,,"Mozilla/5.0 (X11; Fedora; Linux x86_64) AppleWebKit/537.36 (KHTML, like Gecko) Chrome/81.0.4044.138 Safari/537.36",1680,947,1680,1050,,,,,,,,,,,,,,,,,,,,,,,,,"666.6666666666666,500",1165.16117
