language_mouse.x,language_mouse.y,language_mouse.leftButton,language_mouse.midButton,language_mouse.rightButton,language_mouse.time,language_mouse.clicked_name,nationality,mother_tongue,homeland,gender,age,email,date,expName,psychopyVersion,OS,frameRate,cancel_experiment,cancel_reasons,client_agent_information,windowWidth,windowHeight,xRes,yRes,start_exp_mouse.x,start_exp_mouse.y,start_exp_mouse.leftButton,start_exp_mouse.midButton,start_exp_mouse.rightButton,start_exp_mouse.time,start_exp_mouse.clicked_name,rating_slider.response,rating_slider.rt,next_trial_mouse.x,next_trial_mouse.y,next_trial_mouse.leftButton,next_trial_mouse.midButton,next_trial_mouse.rightButton,next_trial_mouse.clicked_name,trials.thisRepN,trials.thisTrialN,trials.thisN,trials.thisIndex,trials.ran,environment,sunVisibility,cloudVisibility,imageId,imgSize,globalClockTime
-0.297465588,-0.262309803,1,0,0,3.6735,de_flag,de,de,de,m,34,,2021-08-06_09h06.46.243,online_experiment,2021.1.4,MacIntel,60.0024001,FALSE,,"Mozilla/5.0 (Macintosh; Intel Mac OS X 10_15_7) AppleWebKit/537.36 (KHTML, like Gecko) Chrome/92.0.4515.107 Safari/537.36",1680,861,1680,1050,,,,,,,,,,,,,,,,,,,,,,,,,,
,,,,,,,de,de,de,m,34,,2021-08-06_09h06.46.243,online_experiment,2021.1.4,MacIntel,60.0024001,FALSE,,"Mozilla/5.0 (Macintosh; Intel Mac OS X 10_15_7) AppleWebKit/537.36 (KHTML, like Gecko) Chrome/92.0.4515.107 Safari/537.36",1680,861,1680,1050,0.019313384,-0.406729736,1,0,0,9.1664,cont_gr,6,21.2016,0.40271217,-0.406998814,1,0,0,next_trial_button,0,0,0,10,1,beach,visiblesun,noclouds,1,"747.0261697065821,500",
,,,,,,,de,de,de,m,34,,2021-08-06_09h06.46.243,online_experiment,2021.1.4,MacIntel,60.0024001,FALSE,,"Mozilla/5.0 (Macintosh; Intel Mac OS X 10_15_7) AppleWebKit/537.36 (KHTML, like Gecko) Chrome/92.0.4515.107 Safari/537.36",1680,861,1680,1050,,,,,,,,7,5.1788,0.407222959,-0.421543899,1,0,0,next_trial_button,0,1,1,79,1,landscape,visiblesun,yesclouds,9,"1028.5714285714284,500",
,,,,,,,de,de,de,m,34,,2021-08-06_09h06.46.243,online_experiment,2021.1.4,MacIntel,60.0024001,FALSE,,"Mozilla/5.0 (Macintosh; Intel Mac OS X 10_15_7) AppleWebKit/537.36 (KHTML, like Gecko) Chrome/92.0.4515.107 Safari/537.36",1680,861,1680,1050,,,,,,,,7,4.4455,0.353243931,-0.418663272,1,0,0,next_trial_button,0,2,2,57,1,beach,invisiblesun,yesclouds,7,"749.707488299532,500",
,,,,,,,de,de,de,m,34,,2021-08-06_09h06.46.243,online_experiment,2021.1.4,MacIntel,60.0024001,FALSE,,"Mozilla/5.0 (Macintosh; Intel Mac OS X 10_15_7) AppleWebKit/537.36 (KHTML, like Gecko) Chrome/92.0.4515.107 Safari/537.36",1680,861,1680,1050,,,,,,,,7,3.8805,0.354147833,-0.400334298,1,0,0,next_trial_button,0,3,3,61,1,landscape,invisiblesun,yesclouds,7,"500,500",
,,,,,,,de,de,de,m,34,,2021-08-06_09h06.46.243,online_experiment,2021.1.4,MacIntel,60.0024001,FALSE,,"Mozilla/5.0 (Macintosh; Intel Mac OS X 10_15_7) AppleWebKit/537.36 (KHTML, like Gecko) Chrome/92.0.4515.107 Safari/537.36",1680,861,1680,1050,,,,,,,,4,4.0336,0.359207241,-0.408042515,1,0,0,next_trial_button,0,4,4,76,1,landscape,invisiblesun,noclouds,9,"1056.6037735849056,500",
,,,,,,,de,de,de,m,34,,2021-08-06_09h06.46.243,online_experiment,2021.1.4,MacIntel,60.0024001,FALSE,,"Mozilla/5.0 (Macintosh; Intel Mac OS X 10_15_7) AppleWebKit/537.36 (KHTML, like Gecko) Chrome/92.0.4515.107 Safari/537.36",1680,861,1680,1050,,,,,,,,7,2.9448,0.391686547,-0.402345029,1,0,0,next_trial_button,0,5,5,65,1,beach,invisiblesun,yesclouds,8,"750,500",
,,,,,,,de,de,de,m,34,,2021-08-06_09h06.46.243,online_experiment,2021.1.4,MacIntel,60.0024001,FALSE,,"Mozilla/5.0 (Macintosh; Intel Mac OS X 10_15_7) AppleWebKit/537.36 (KHTML, like Gecko) Chrome/92.0.4515.107 Safari/537.36",1680,861,1680,1050,,,,,,,,8,2.5466,0.461138858,-0.414321173,1,0,0,next_trial_button,0,6,6,41,1,beach,invisiblesun,yesclouds,5,"1248.4394506866417,500",
,,,,,,,de,de,de,m,34,,2021-08-06_09h06.46.243,online_experiment,2021.1.4,MacIntel,60.0024001,FALSE,,"Mozilla/5.0 (Macintosh; Intel Mac OS X 10_15_7) AppleWebKit/537.36 (KHTML, like Gecko) Chrome/92.0.4515.107 Safari/537.36",1680,861,1680,1050,,,,,,,,6,5.4994,0.426768043,-0.427677874,1,0,0,next_trial_button,0,7,7,4,1,landscape,invisiblesun,noclouds,0,"1276.9171185127807,500",
,,,,,,,de,de,de,m,34,,2021-08-06_09h06.46.243,online_experiment,2021.1.4,MacIntel,60.0024001,FALSE,,"Mozilla/5.0 (Macintosh; Intel Mac OS X 10_15_7) AppleWebKit/537.36 (KHTML, like Gecko) Chrome/92.0.4515.107 Safari/537.36",1680,861,1680,1050,,,,,,,,3,4.2106,0.401943011,-0.407492036,1,0,0,next_trial_button,0,8,8,60,1,landscape,invisiblesun,noclouds,7,"666.7268134247564,500",
,,,,,,,de,de,de,m,34,,2021-08-06_09h06.46.243,online_experiment,2021.1.4,MacIntel,60.0024001,FALSE,,"Mozilla/5.0 (Macintosh; Intel Mac OS X 10_15_7) AppleWebKit/537.36 (KHTML, like Gecko) Chrome/92.0.4515.107 Safari/537.36",1680,861,1680,1050,,,,,,,,6,4.2495,0.340202637,-0.397606724,1,0,0,next_trial_button,0,9,9,12,1,landscape,invisiblesun,noclouds,1,"666.6666666666666,500",
,,,,,,,de,de,de,m,34,,2021-08-06_09h06.46.243,online_experiment,2021.1.4,MacIntel,60.0024001,FALSE,,"Mozilla/5.0 (Macintosh; Intel Mac OS X 10_15_7) AppleWebKit/537.36 (KHTML, like Gecko) Chrome/92.0.4515.107 Safari/537.36",1680,861,1680,1050,,,,,,,,6,19.3471,0.399289318,-0.41849714,1,0,0,next_trial_button,0,10,10,33,1,beach,invisiblesun,yesclouds,4,"751.5473032714411,500",
,,,,,,,de,de,de,m,34,,2021-08-06_09h06.46.243,online_experiment,2021.1.4,MacIntel,60.0024001,FALSE,,"Mozilla/5.0 (Macintosh; Intel Mac OS X 10_15_7) AppleWebKit/537.36 (KHTML, like Gecko) Chrome/92.0.4515.107 Safari/537.36",1680,861,1680,1050,,,,,,,,5,6.7289,0.356898833,-0.391584589,1,0,0,next_trial_button,0,11,11,13,1,landscape,invisiblesun,yesclouds,1,"783.1192660550458,500",
,,,,,,,de,de,de,m,34,,2021-08-06_09h06.46.243,online_experiment,2021.1.4,MacIntel,60.0024001,FALSE,,"Mozilla/5.0 (Macintosh; Intel Mac OS X 10_15_7) AppleWebKit/537.36 (KHTML, like Gecko) Chrome/92.0.4515.107 Safari/537.36",1680,861,1680,1050,,,,,,,,5,25.6323,0.389194452,-0.403857713,1,0,0,next_trial_button,0,12,12,8,1,beach,invisiblesun,noclouds,1,"1215.1898734177216,500",
,,,,,,,de,de,de,m,34,,2021-08-06_09h06.46.243,online_experiment,2021.1.4,MacIntel,60.0024001,FALSE,,"Mozilla/5.0 (Macintosh; Intel Mac OS X 10_15_7) AppleWebKit/537.36 (KHTML, like Gecko) Chrome/92.0.4515.107 Safari/537.36",1680,861,1680,1050,,,,,,,,6,2.6312,0.383439941,-0.400703997,1,0,0,next_trial_button,0,13,13,49,1,beach,invisiblesun,yesclouds,6,"858.4474885844749,500",
,,,,,,,de,de,de,m,34,,2021-08-06_09h06.46.243,online_experiment,2021.1.4,MacIntel,60.0024001,FALSE,,"Mozilla/5.0 (Macintosh; Intel Mac OS X 10_15_7) AppleWebKit/537.36 (KHTML, like Gecko) Chrome/92.0.4515.107 Safari/537.36",1680,861,1680,1050,,,,,,,,9,3.1979,0.452738095,-0.398491967,1,0,0,next_trial_button,0,14,14,45,1,landscape,invisiblesun,yesclouds,5,"749.6251874062968,500",
,,,,,,,de,de,de,m,34,,2021-08-06_09h06.46.243,online_experiment,2021.1.4,MacIntel,60.0024001,FALSE,,"Mozilla/5.0 (Macintosh; Intel Mac OS X 10_15_7) AppleWebKit/537.36 (KHTML, like Gecko) Chrome/92.0.4515.107 Safari/537.36",1680,861,1680,1050,,,,,,,,5,2.9258,0.414441499,-0.391047131,1,0,0,next_trial_button,0,15,15,69,1,landscape,invisiblesun,yesclouds,8,"750,500",
,,,,,,,de,de,de,m,34,,2021-08-06_09h06.46.243,online_experiment,2021.1.4,MacIntel,60.0024001,FALSE,,"Mozilla/5.0 (Macintosh; Intel Mac OS X 10_15_7) AppleWebKit/537.36 (KHTML, like Gecko) Chrome/92.0.4515.107 Safari/537.36",1680,861,1680,1050,,,,,,,,4,2.6469,0.37147147,-0.411523263,1,0,0,next_trial_button,0,16,16,68,1,landscape,invisiblesun,noclouds,8,"666.6666666666666,500",
,,,,,,,de,de,de,m,34,,2021-08-06_09h06.46.243,online_experiment,2021.1.4,MacIntel,60.0024001,FALSE,,"Mozilla/5.0 (Macintosh; Intel Mac OS X 10_15_7) AppleWebKit/537.36 (KHTML, like Gecko) Chrome/92.0.4515.107 Safari/537.36",1680,861,1680,1050,,,,,,,,5,4.1135,0.334131441,-0.399094355,1,0,0,next_trial_button,0,17,17,72,1,beach,invisiblesun,noclouds,9,"888.8888888888888,500",
,,,,,,,de,de,de,m,34,,2021-08-06_09h06.46.243,online_experiment,2021.1.4,MacIntel,60.0024001,FALSE,,"Mozilla/5.0 (Macintosh; Intel Mac OS X 10_15_7) AppleWebKit/537.36 (KHTML, like Gecko) Chrome/92.0.4515.107 Safari/537.36",1680,861,1680,1050,,,,,,,,7,6.0464,0.350318545,-0.403695243,1,0,0,next_trial_button,0,18,18,9,1,beach,invisiblesun,yesclouds,1,"750,500",
,,,,,,,de,de,de,m,34,,2021-08-06_09h06.46.243,online_experiment,2021.1.4,MacIntel,60.0024001,FALSE,,"Mozilla/5.0 (Macintosh; Intel Mac OS X 10_15_7) AppleWebKit/537.36 (KHTML, like Gecko) Chrome/92.0.4515.107 Safari/537.36",1680,861,1680,1050,,,,,,,,3,4.3939,0.41505313,-0.402968343,1,0,0,next_trial_button,0,19,19,62,1,landscape,visiblesun,noclouds,7,"417.42389822807814,500",
,,,,,,,de,de,de,m,34,,2021-08-06_09h06.46.243,online_experiment,2021.1.4,MacIntel,60.0024001,FALSE,,"Mozilla/5.0 (Macintosh; Intel Mac OS X 10_15_7) AppleWebKit/537.36 (KHTML, like Gecko) Chrome/92.0.4515.107 Safari/537.36",1680,861,1680,1050,,,,,,,,6,14.2121,0.41154355,-0.396044108,1,0,0,next_trial_button,0,20,20,63,1,landscape,visiblesun,yesclouds,7,"331.94444444444446,500",
,,,,,,,de,de,de,m,34,,2021-08-06_09h06.46.243,online_experiment,2021.1.4,MacIntel,60.0024001,FALSE,,"Mozilla/5.0 (Macintosh; Intel Mac OS X 10_15_7) AppleWebKit/537.36 (KHTML, like Gecko) Chrome/92.0.4515.107 Safari/537.36",1680,861,1680,1050,,,,,,,,6,2.826,0.3776373,-0.40733817,1,0,0,next_trial_button,0,21,21,24,1,beach,invisiblesun,noclouds,3,"750.089190153407,500",
,,,,,,,de,de,de,m,34,,2021-08-06_09h06.46.243,online_experiment,2021.1.4,MacIntel,60.0024001,FALSE,,"Mozilla/5.0 (Macintosh; Intel Mac OS X 10_15_7) AppleWebKit/537.36 (KHTML, like Gecko) Chrome/92.0.4515.107 Safari/537.36",1680,861,1680,1050,,,,,,,,2,4.9584,0.39615618,-0.406792748,1,0,0,next_trial_button,0,22,22,71,1,landscape,visiblesun,yesclouds,8,"666.6666666666666,500",
,,,,,,,de,de,de,m,34,,2021-08-06_09h06.46.243,online_experiment,2021.1.4,MacIntel,60.0024001,FALSE,,"Mozilla/5.0 (Macintosh; Intel Mac OS X 10_15_7) AppleWebKit/537.36 (KHTML, like Gecko) Chrome/92.0.4515.107 Safari/537.36",1680,861,1680,1050,,,,,,,,7,3.4805,0.440086496,-0.405092367,1,0,0,next_trial_button,0,23,23,58,1,beach,visiblesun,noclouds,7,"1028.5714285714284,500",
,,,,,,,de,de,de,m,34,,2021-08-06_09h06.46.243,online_experiment,2021.1.4,MacIntel,60.0024001,FALSE,,"Mozilla/5.0 (Macintosh; Intel Mac OS X 10_15_7) AppleWebKit/537.36 (KHTML, like Gecko) Chrome/92.0.4515.107 Safari/537.36",1680,861,1680,1050,,,,,,,,6,2.7608,0.348177897,-0.405941453,1,0,0,next_trial_button,0,24,24,16,1,beach,invisiblesun,noclouds,2,"752.8089887640449,500",
,,,,,,,de,de,de,m,34,,2021-08-06_09h06.46.243,online_experiment,2021.1.4,MacIntel,60.0024001,FALSE,,"Mozilla/5.0 (Macintosh; Intel Mac OS X 10_15_7) AppleWebKit/537.36 (KHTML, like Gecko) Chrome/92.0.4515.107 Safari/537.36",1680,861,1680,1050,,,,,,,,5,2.4981,0.358745582,-0.396013881,1,0,0,next_trial_button,0,25,25,23,1,landscape,visiblesun,yesclouds,2,"767.97829036635,500",
,,,,,,,de,de,de,m,34,,2021-08-06_09h06.46.243,online_experiment,2021.1.4,MacIntel,60.0024001,FALSE,,"Mozilla/5.0 (Macintosh; Intel Mac OS X 10_15_7) AppleWebKit/537.36 (KHTML, like Gecko) Chrome/92.0.4515.107 Safari/537.36",1680,861,1680,1050,,,,,,,,5,2.1791,0.369502069,-0.399770508,1,0,0,next_trial_button,0,26,26,36,1,landscape,invisiblesun,noclouds,4,"281.25,500",
,,,,,,,de,de,de,m,34,,2021-08-06_09h06.46.243,online_experiment,2021.1.4,MacIntel,60.0024001,FALSE,,"Mozilla/5.0 (Macintosh; Intel Mac OS X 10_15_7) AppleWebKit/537.36 (KHTML, like Gecko) Chrome/92.0.4515.107 Safari/537.36",1680,861,1680,1050,,,,,,,,6,3.9312,0.380450498,-0.388383963,1,0,0,next_trial_button,0,27,27,2,1,beach,visiblesun,noclouds,0,"375,500",
,,,,,,,de,de,de,m,34,,2021-08-06_09h06.46.243,online_experiment,2021.1.4,MacIntel,60.0024001,FALSE,,"Mozilla/5.0 (Macintosh; Intel Mac OS X 10_15_7) AppleWebKit/537.36 (KHTML, like Gecko) Chrome/92.0.4515.107 Safari/537.36",1680,861,1680,1050,,,,,,,,5,10.1488,0.423792666,-0.391543027,1,0,0,next_trial_button,0,28,28,15,1,landscape,visiblesun,yesclouds,1,"333.3333333333333,500",
,,,,,,,de,de,de,m,34,,2021-08-06_09h06.46.243,online_experiment,2021.1.4,MacIntel,60.0024001,FALSE,,"Mozilla/5.0 (Macintosh; Intel Mac OS X 10_15_7) AppleWebKit/537.36 (KHTML, like Gecko) Chrome/92.0.4515.107 Safari/537.36",1680,861,1680,1050,,,,,,,,5,1.9931,0.364286179,-0.391755545,1,0,0,next_trial_button,0,29,29,78,1,landscape,visiblesun,noclouds,9,"666.6666666666666,500",
,,,,,,,de,de,de,m,34,,2021-08-06_09h06.46.243,online_experiment,2021.1.4,MacIntel,60.0024001,FALSE,,"Mozilla/5.0 (Macintosh; Intel Mac OS X 10_15_7) AppleWebKit/537.36 (KHTML, like Gecko) Chrome/92.0.4515.107 Safari/537.36",1680,861,1680,1050,,,,,,,,6,1.828,0.396002139,-0.401852446,1,0,0,next_trial_button,0,30,30,50,1,beach,visiblesun,noclouds,6,"666.6666666666666,500",
,,,,,,,de,de,de,m,34,,2021-08-06_09h06.46.243,online_experiment,2021.1.4,MacIntel,60.0024001,FALSE,,"Mozilla/5.0 (Macintosh; Intel Mac OS X 10_15_7) AppleWebKit/537.36 (KHTML, like Gecko) Chrome/92.0.4515.107 Safari/537.36",1680,861,1680,1050,,,,,,,,5,2.3311,0.36202474,-0.408568057,1,0,0,next_trial_button,0,31,31,31,1,landscape,visiblesun,yesclouds,3,"638.0622837370242,500",
,,,,,,,de,de,de,m,34,,2021-08-06_09h06.46.243,online_experiment,2021.1.4,MacIntel,60.0024001,FALSE,,"Mozilla/5.0 (Macintosh; Intel Mac OS X 10_15_7) AppleWebKit/537.36 (KHTML, like Gecko) Chrome/92.0.4515.107 Safari/537.36",1680,861,1680,1050,,,,,,,,6,2.0455,0.388977051,-0.411705904,1,0,0,next_trial_button,0,32,32,18,1,beach,visiblesun,noclouds,2,"666.6666666666666,500",
,,,,,,,de,de,de,m,34,,2021-08-06_09h06.46.243,online_experiment,2021.1.4,MacIntel,60.0024001,FALSE,,"Mozilla/5.0 (Macintosh; Intel Mac OS X 10_15_7) AppleWebKit/537.36 (KHTML, like Gecko) Chrome/92.0.4515.107 Safari/537.36",1680,861,1680,1050,,,,,,,,6,2.2755,0.425362491,-0.41244501,1,0,0,next_trial_button,0,33,33,70,1,landscape,visiblesun,noclouds,8,"666.6666666666666,500",
,,,,,,,de,de,de,m,34,,2021-08-06_09h06.46.243,online_experiment,2021.1.4,MacIntel,60.0024001,FALSE,,"Mozilla/5.0 (Macintosh; Intel Mac OS X 10_15_7) AppleWebKit/537.36 (KHTML, like Gecko) Chrome/92.0.4515.107 Safari/537.36",1680,861,1680,1050,,,,,,,,7,2.2469,0.374663086,-0.407965146,1,0,0,next_trial_button,0,34,34,56,1,beach,invisiblesun,noclouds,7,"1028.5714285714284,500",
,,,,,,,de,de,de,m,34,,2021-08-06_09h06.46.243,online_experiment,2021.1.4,MacIntel,60.0024001,FALSE,,"Mozilla/5.0 (Macintosh; Intel Mac OS X 10_15_7) AppleWebKit/537.36 (KHTML, like Gecko) Chrome/92.0.4515.107 Safari/537.36",1680,861,1680,1050,,,,,,,,3,4.9285,0.351860352,-0.41753511,1,0,0,next_trial_button,0,35,35,7,1,landscape,visiblesun,yesclouds,0,"743.421052631579,500",
,,,,,,,de,de,de,m,34,,2021-08-06_09h06.46.243,online_experiment,2021.1.4,MacIntel,60.0024001,FALSE,,"Mozilla/5.0 (Macintosh; Intel Mac OS X 10_15_7) AppleWebKit/537.36 (KHTML, like Gecko) Chrome/92.0.4515.107 Safari/537.36",1680,861,1680,1050,,,,,,,,6,8.4659,0.393115583,-0.430594192,1,0,0,next_trial_button,0,36,36,42,1,beach,visiblesun,noclouds,5,"834.4594594594595,500",
,,,,,,,de,de,de,m,34,,2021-08-06_09h06.46.243,online_experiment,2021.1.4,MacIntel,60.0024001,FALSE,,"Mozilla/5.0 (Macintosh; Intel Mac OS X 10_15_7) AppleWebKit/537.36 (KHTML, like Gecko) Chrome/92.0.4515.107 Safari/537.36",1680,861,1680,1050,,,,,,,,4,6.0633,0.368907878,-0.405834147,1,0,0,next_trial_button,0,37,37,52,1,landscape,invisiblesun,noclouds,6,"666.6666666666666,500",
,,,,,,,de,de,de,m,34,,2021-08-06_09h06.46.243,online_experiment,2021.1.4,MacIntel,60.0024001,FALSE,,"Mozilla/5.0 (Macintosh; Intel Mac OS X 10_15_7) AppleWebKit/537.36 (KHTML, like Gecko) Chrome/92.0.4515.107 Safari/537.36",1680,861,1680,1050,,,,,,,,4,4.0827,0.409737258,-0.404010649,1,0,0,next_trial_button,0,38,38,44,1,landscape,invisiblesun,noclouds,5,"666.6666666666666,500",
,,,,,,,de,de,de,m,34,,2021-08-06_09h06.46.243,online_experiment,2021.1.4,MacIntel,60.0024001,FALSE,,"Mozilla/5.0 (Macintosh; Intel Mac OS X 10_15_7) AppleWebKit/537.36 (KHTML, like Gecko) Chrome/92.0.4515.107 Safari/537.36",1680,861,1680,1050,,,,,,,,8,4.6582,0.424143066,-0.420371966,1,0,0,next_trial_button,0,39,39,53,1,landscape,invisiblesun,yesclouds,6,"750.0695023630803,500",
,,,,,,,de,de,de,m,34,,2021-08-06_09h06.46.243,online_experiment,2021.1.4,MacIntel,60.0024001,FALSE,,"Mozilla/5.0 (Macintosh; Intel Mac OS X 10_15_7) AppleWebKit/537.36 (KHTML, like Gecko) Chrome/92.0.4515.107 Safari/537.36",1680,861,1680,1050,,,,,,,,6,3.6947,0.331860003,-0.394298793,1,0,0,next_trial_button,0,40,40,39,1,landscape,visiblesun,yesclouds,4,"749.7656982193065,500",
,,,,,,,de,de,de,m,34,,2021-08-06_09h06.46.243,online_experiment,2021.1.4,MacIntel,60.0024001,FALSE,,"Mozilla/5.0 (Macintosh; Intel Mac OS X 10_15_7) AppleWebKit/537.36 (KHTML, like Gecko) Chrome/92.0.4515.107 Safari/537.36",1680,861,1680,1050,,,,,,,,7,2.1156,0.382906552,-0.397161749,1,0,0,next_trial_button,0,41,41,73,1,beach,invisiblesun,yesclouds,9,"1028.5714285714284,500",
,,,,,,,de,de,de,m,34,,2021-08-06_09h06.46.243,online_experiment,2021.1.4,MacIntel,60.0024001,FALSE,,"Mozilla/5.0 (Macintosh; Intel Mac OS X 10_15_7) AppleWebKit/537.36 (KHTML, like Gecko) Chrome/92.0.4515.107 Safari/537.36",1680,861,1680,1050,,,,,,,,3,2.2792,0.333969145,-0.398374837,1,0,0,next_trial_button,0,42,42,5,1,landscape,invisiblesun,yesclouds,0,"750.4690431519699,500",
,,,,,,,de,de,de,m,34,,2021-08-06_09h06.46.243,online_experiment,2021.1.4,MacIntel,60.0024001,FALSE,,"Mozilla/5.0 (Macintosh; Intel Mac OS X 10_15_7) AppleWebKit/537.36 (KHTML, like Gecko) Chrome/92.0.4515.107 Safari/537.36",1680,861,1680,1050,,,,,,,,5,4.059,0.371326846,-0.41268421,1,0,0,next_trial_button,0,43,43,75,1,beach,visiblesun,yesclouds,9,"1029.6010296010297,500",
,,,,,,,de,de,de,m,34,,2021-08-06_09h06.46.243,online_experiment,2021.1.4,MacIntel,60.0024001,FALSE,,"Mozilla/5.0 (Macintosh; Intel Mac OS X 10_15_7) AppleWebKit/537.36 (KHTML, like Gecko) Chrome/92.0.4515.107 Safari/537.36",1680,861,1680,1050,,,,,,,,5,1.8581,0.340577799,-0.403809349,1,0,0,next_trial_button,0,44,44,51,1,beach,visiblesun,yesclouds,6,"657.1279916753382,500",
,,,,,,,de,de,de,m,34,,2021-08-06_09h06.46.243,online_experiment,2021.1.4,MacIntel,60.0024001,FALSE,,"Mozilla/5.0 (Macintosh; Intel Mac OS X 10_15_7) AppleWebKit/537.36 (KHTML, like Gecko) Chrome/92.0.4515.107 Safari/537.36",1680,861,1680,1050,,,,,,,,6,2.6478,0.391097121,-0.398716809,1,0,0,next_trial_button,0,45,45,1,1,beach,invisiblesun,yesclouds,0,"666.6666666666666,500",
,,,,,,,de,de,de,m,34,,2021-08-06_09h06.46.243,online_experiment,2021.1.4,MacIntel,60.0024001,FALSE,,"Mozilla/5.0 (Macintosh; Intel Mac OS X 10_15_7) AppleWebKit/537.36 (KHTML, like Gecko) Chrome/92.0.4515.107 Safari/537.36",1680,861,1680,1050,,,,,,,,6,4.6614,0.412287714,-0.400540481,1,0,0,next_trial_button,0,46,46,38,1,landscape,visiblesun,noclouds,4,"733.3333333333333,500",
,,,,,,,de,de,de,m,34,,2021-08-06_09h06.46.243,online_experiment,2021.1.4,MacIntel,60.0024001,FALSE,,"Mozilla/5.0 (Macintosh; Intel Mac OS X 10_15_7) AppleWebKit/537.36 (KHTML, like Gecko) Chrome/92.0.4515.107 Safari/537.36",1680,861,1680,1050,,,,,,,,6,3.6949,0.401381255,-0.413457206,1,0,0,next_trial_button,0,47,47,67,1,beach,visiblesun,yesclouds,8,"748.1481481481482,500",
,,,,,,,de,de,de,m,34,,2021-08-06_09h06.46.243,online_experiment,2021.1.4,MacIntel,60.0024001,FALSE,,"Mozilla/5.0 (Macintosh; Intel Mac OS X 10_15_7) AppleWebKit/537.36 (KHTML, like Gecko) Chrome/92.0.4515.107 Safari/537.36",1680,861,1680,1050,,,,,,,,6,2.4307,0.388726749,-0.418024612,1,0,0,next_trial_button,0,48,48,40,1,beach,invisiblesun,noclouds,5,"1028.5714285714284,500",
,,,,,,,de,de,de,m,34,,2021-08-06_09h06.46.243,online_experiment,2021.1.4,MacIntel,60.0024001,FALSE,,"Mozilla/5.0 (Macintosh; Intel Mac OS X 10_15_7) AppleWebKit/537.36 (KHTML, like Gecko) Chrome/92.0.4515.107 Safari/537.36",1680,861,1680,1050,,,,,,,,6,4.3144,0.403974261,-0.390382196,1,0,0,next_trial_button,0,49,49,43,1,beach,visiblesun,yesclouds,5,"750,500",
,,,,,,,de,de,de,m,34,,2021-08-06_09h06.46.243,online_experiment,2021.1.4,MacIntel,60.0024001,FALSE,,"Mozilla/5.0 (Macintosh; Intel Mac OS X 10_15_7) AppleWebKit/537.36 (KHTML, like Gecko) Chrome/92.0.4515.107 Safari/537.36",1680,861,1680,1050,,,,,,,,7,3.649,0.416401716,-0.405089809,1,0,0,next_trial_button,0,50,50,20,1,landscape,invisiblesun,noclouds,2,"755.192878338279,500",
,,,,,,,de,de,de,m,34,,2021-08-06_09h06.46.243,online_experiment,2021.1.4,MacIntel,60.0024001,FALSE,,"Mozilla/5.0 (Macintosh; Intel Mac OS X 10_15_7) AppleWebKit/537.36 (KHTML, like Gecko) Chrome/92.0.4515.107 Safari/537.36",1680,861,1680,1050,,,,,,,,6,2.3461,0.366556571,-0.411237793,1,0,0,next_trial_button,0,51,51,34,1,beach,visiblesun,noclouds,4,"749.6251874062968,500",
,,,,,,,de,de,de,m,34,,2021-08-06_09h06.46.243,online_experiment,2021.1.4,MacIntel,60.0024001,FALSE,,"Mozilla/5.0 (Macintosh; Intel Mac OS X 10_15_7) AppleWebKit/537.36 (KHTML, like Gecko) Chrome/92.0.4515.107 Safari/537.36",1680,861,1680,1050,,,,,,,,4,2.3243,0.348276483,-0.405477004,1,0,0,next_trial_button,0,52,52,77,1,landscape,invisiblesun,yesclouds,9,"888.8888888888888,500",
,,,,,,,de,de,de,m,34,,2021-08-06_09h06.46.243,online_experiment,2021.1.4,MacIntel,60.0024001,FALSE,,"Mozilla/5.0 (Macintosh; Intel Mac OS X 10_15_7) AppleWebKit/537.36 (KHTML, like Gecko) Chrome/92.0.4515.107 Safari/537.36",1680,861,1680,1050,,,,,,,,4,3.4636,0.383804176,-0.403099598,1,0,0,next_trial_button,0,53,53,46,1,landscape,visiblesun,noclouds,5,"750,500",
,,,,,,,de,de,de,m,34,,2021-08-06_09h06.46.243,online_experiment,2021.1.4,MacIntel,60.0024001,FALSE,,"Mozilla/5.0 (Macintosh; Intel Mac OS X 10_15_7) AppleWebKit/537.36 (KHTML, like Gecko) Chrome/92.0.4515.107 Safari/537.36",1680,861,1680,1050,,,,,,,,6,4.0422,0.330874372,-0.413533587,1,0,0,next_trial_button,0,54,54,6,1,landscape,visiblesun,noclouds,0,"1413.8005159071367,500",
,,,,,,,de,de,de,m,34,,2021-08-06_09h06.46.243,online_experiment,2021.1.4,MacIntel,60.0024001,FALSE,,"Mozilla/5.0 (Macintosh; Intel Mac OS X 10_15_7) AppleWebKit/537.36 (KHTML, like Gecko) Chrome/92.0.4515.107 Safari/537.36",1680,861,1680,1050,,,,,,,,4,2.863,0.391624,-0.404771554,1,0,0,next_trial_button,0,55,55,55,1,landscape,visiblesun,yesclouds,6,"749.8819083608881,500",
,,,,,,,de,de,de,m,34,,2021-08-06_09h06.46.243,online_experiment,2021.1.4,MacIntel,60.0024001,FALSE,,"Mozilla/5.0 (Macintosh; Intel Mac OS X 10_15_7) AppleWebKit/537.36 (KHTML, like Gecko) Chrome/92.0.4515.107 Safari/537.36",1680,861,1680,1050,,,,,,,,6,2.7168,0.336859887,-0.416534308,1,0,0,next_trial_button,0,56,56,74,1,beach,visiblesun,noclouds,9,"1028.5714285714284,500",
,,,,,,,de,de,de,m,34,,2021-08-06_09h06.46.243,online_experiment,2021.1.4,MacIntel,60.0024001,FALSE,,"Mozilla/5.0 (Macintosh; Intel Mac OS X 10_15_7) AppleWebKit/537.36 (KHTML, like Gecko) Chrome/92.0.4515.107 Safari/537.36",1680,861,1680,1050,,,,,,,,7,1.8793,0.382647298,-0.40537586,1,0,0,next_trial_button,0,57,57,66,1,beach,visiblesun,noclouds,8,"1028.5714285714284,500",
,,,,,,,de,de,de,m,34,,2021-08-06_09h06.46.243,online_experiment,2021.1.4,MacIntel,60.0024001,FALSE,,"Mozilla/5.0 (Macintosh; Intel Mac OS X 10_15_7) AppleWebKit/537.36 (KHTML, like Gecko) Chrome/92.0.4515.107 Safari/537.36",1680,861,1680,1050,,,,,,,,5,5.2769,0.371594587,-0.402080892,1,0,0,next_trial_button,0,58,58,17,1,beach,invisiblesun,yesclouds,2,"684.8635235732011,500",
,,,,,,,de,de,de,m,34,,2021-08-06_09h06.46.243,online_experiment,2021.1.4,MacIntel,60.0024001,FALSE,,"Mozilla/5.0 (Macintosh; Intel Mac OS X 10_15_7) AppleWebKit/537.36 (KHTML, like Gecko) Chrome/92.0.4515.107 Safari/537.36",1680,861,1680,1050,,,,,,,,6,2.0797,0.381577032,-0.39855771,1,0,0,next_trial_button,0,59,59,25,1,beach,invisiblesun,yesclouds,3,"750.4690431519699,500",
,,,,,,,de,de,de,m,34,,2021-08-06_09h06.46.243,online_experiment,2021.1.4,MacIntel,60.0024001,FALSE,,"Mozilla/5.0 (Macintosh; Intel Mac OS X 10_15_7) AppleWebKit/537.36 (KHTML, like Gecko) Chrome/92.0.4515.107 Safari/537.36",1680,861,1680,1050,,,,,,,,7,2.3436,0.417219238,-0.416996722,1,0,0,next_trial_button,0,60,60,22,1,landscape,visiblesun,noclouds,2,"749.3333333333333,500",
,,,,,,,de,de,de,m,34,,2021-08-06_09h06.46.243,online_experiment,2021.1.4,MacIntel,60.0024001,FALSE,,"Mozilla/5.0 (Macintosh; Intel Mac OS X 10_15_7) AppleWebKit/537.36 (KHTML, like Gecko) Chrome/92.0.4515.107 Safari/537.36",1680,861,1680,1050,,,,,,,,6,2.225,0.385724051,-0.392603062,1,0,0,next_trial_button,0,61,61,19,1,beach,visiblesun,yesclouds,2,"770.1393095093882,500",
,,,,,,,de,de,de,m,34,,2021-08-06_09h06.46.243,online_experiment,2021.1.4,MacIntel,60.0024001,FALSE,,"Mozilla/5.0 (Macintosh; Intel Mac OS X 10_15_7) AppleWebKit/537.36 (KHTML, like Gecko) Chrome/92.0.4515.107 Safari/537.36",1680,861,1680,1050,,,,,,,,2,2.9105,0.438618745,-0.408190337,1,0,0,next_trial_button,0,62,62,30,1,landscape,visiblesun,noclouds,3,"346.3035019455253,500",
,,,,,,,de,de,de,m,34,,2021-08-06_09h06.46.243,online_experiment,2021.1.4,MacIntel,60.0024001,FALSE,,"Mozilla/5.0 (Macintosh; Intel Mac OS X 10_15_7) AppleWebKit/537.36 (KHTML, like Gecko) Chrome/92.0.4515.107 Safari/537.36",1680,861,1680,1050,,,,,,,,6,3.9309,0.37817906,-0.410973365,1,0,0,next_trial_button,0,63,63,59,1,beach,visiblesun,yesclouds,7,"888.9689978370584,500",
,,,,,,,de,de,de,m,34,,2021-08-06_09h06.46.243,online_experiment,2021.1.4,MacIntel,60.0024001,FALSE,,"Mozilla/5.0 (Macintosh; Intel Mac OS X 10_15_7) AppleWebKit/537.36 (KHTML, like Gecko) Chrome/92.0.4515.107 Safari/537.36",1680,861,1680,1050,,,,,,,,3,3.0291,0.37878232,-0.411609352,1,0,0,next_trial_button,0,64,64,47,1,landscape,visiblesun,yesclouds,5,"666.6666666666666,500",
,,,,,,,de,de,de,m,34,,2021-08-06_09h06.46.243,online_experiment,2021.1.4,MacIntel,60.0024001,FALSE,,"Mozilla/5.0 (Macintosh; Intel Mac OS X 10_15_7) AppleWebKit/537.36 (KHTML, like Gecko) Chrome/92.0.4515.107 Safari/537.36",1680,861,1680,1050,,,,,,,,6,6.9136,0.387779948,-0.398065069,1,0,0,next_trial_button,0,65,65,26,1,beach,visiblesun,noclouds,3,"888.8888888888888,500",
,,,,,,,de,de,de,m,34,,2021-08-06_09h06.46.243,online_experiment,2021.1.4,MacIntel,60.0024001,FALSE,,"Mozilla/5.0 (Macintosh; Intel Mac OS X 10_15_7) AppleWebKit/537.36 (KHTML, like Gecko) Chrome/92.0.4515.107 Safari/537.36",1680,861,1680,1050,,,,,,,,7,2.2975,0.395997838,-0.400859666,1,0,0,next_trial_button,0,66,66,37,1,landscape,invisiblesun,yesclouds,4,"669.4214876033058,500",
,,,,,,,de,de,de,m,34,,2021-08-06_09h06.46.243,online_experiment,2021.1.4,MacIntel,60.0024001,FALSE,,"Mozilla/5.0 (Macintosh; Intel Mac OS X 10_15_7) AppleWebKit/537.36 (KHTML, like Gecko) Chrome/92.0.4515.107 Safari/537.36",1680,861,1680,1050,,,,,,,,6,2.2475,0.388842308,-0.393388149,1,0,0,next_trial_button,0,67,67,11,1,beach,visiblesun,yesclouds,1,"989.8132427843803,500",
,,,,,,,de,de,de,m,34,,2021-08-06_09h06.46.243,online_experiment,2021.1.4,MacIntel,60.0024001,FALSE,,"Mozilla/5.0 (Macintosh; Intel Mac OS X 10_15_7) AppleWebKit/537.36 (KHTML, like Gecko) Chrome/92.0.4515.107 Safari/537.36",1680,861,1680,1050,,,,,,,,6,3.0107,0.366612142,-0.396053002,1,0,0,next_trial_button,0,68,68,0,1,beach,invisiblesun,noclouds,0,"750,500",
,,,,,,,de,de,de,m,34,,2021-08-06_09h06.46.243,online_experiment,2021.1.4,MacIntel,60.0024001,FALSE,,"Mozilla/5.0 (Macintosh; Intel Mac OS X 10_15_7) AppleWebKit/537.36 (KHTML, like Gecko) Chrome/92.0.4515.107 Safari/537.36",1680,861,1680,1050,,,,,,,,4,2.4416,0.417806571,-0.406879069,1,0,0,next_trial_button,0,69,69,21,1,landscape,invisiblesun,yesclouds,2,"750,500",
,,,,,,,de,de,de,m,34,,2021-08-06_09h06.46.243,online_experiment,2021.1.4,MacIntel,60.0024001,FALSE,,"Mozilla/5.0 (Macintosh; Intel Mac OS X 10_15_7) AppleWebKit/537.36 (KHTML, like Gecko) Chrome/92.0.4515.107 Safari/537.36",1680,861,1680,1050,,,,,,,,6,2.4472,0.352630673,-0.411299293,1,0,0,next_trial_button,0,70,70,29,1,landscape,invisiblesun,yesclouds,3,"749.8660953401178,500",
,,,,,,,de,de,de,m,34,,2021-08-06_09h06.46.243,online_experiment,2021.1.4,MacIntel,60.0024001,FALSE,,"Mozilla/5.0 (Macintosh; Intel Mac OS X 10_15_7) AppleWebKit/537.36 (KHTML, like Gecko) Chrome/92.0.4515.107 Safari/537.36",1680,861,1680,1050,,,,,,,,1,3.2824,0.397129953,-0.405536761,1,0,0,next_trial_button,0,71,71,28,1,landscape,invisiblesun,noclouds,3,"888.8888888888888,500",
,,,,,,,de,de,de,m,34,,2021-08-06_09h06.46.243,online_experiment,2021.1.4,MacIntel,60.0024001,FALSE,,"Mozilla/5.0 (Macintosh; Intel Mac OS X 10_15_7) AppleWebKit/537.36 (KHTML, like Gecko) Chrome/92.0.4515.107 Safari/537.36",1680,861,1680,1050,,,,,,,,7,2.6786,0.377476632,-0.38864502,1,0,0,next_trial_button,0,72,72,35,1,beach,visiblesun,yesclouds,4,"750,500",
,,,,,,,de,de,de,m,34,,2021-08-06_09h06.46.243,online_experiment,2021.1.4,MacIntel,60.0024001,FALSE,,"Mozilla/5.0 (Macintosh; Intel Mac OS X 10_15_7) AppleWebKit/537.36 (KHTML, like Gecko) Chrome/92.0.4515.107 Safari/537.36",1680,861,1680,1050,,,,,,,,5,2.6611,0.425656041,-0.409247117,1,0,0,next_trial_button,0,73,73,14,1,landscape,visiblesun,noclouds,1,"745.9919839679359,500",
,,,,,,,de,de,de,m,34,,2021-08-06_09h06.46.243,online_experiment,2021.1.4,MacIntel,60.0024001,FALSE,,"Mozilla/5.0 (Macintosh; Intel Mac OS X 10_15_7) AppleWebKit/537.36 (KHTML, like Gecko) Chrome/92.0.4515.107 Safari/537.36",1680,861,1680,1050,,,,,,,,6,3.3821,0.37927002,-0.418181966,1,0,0,next_trial_button,0,74,74,64,1,beach,invisiblesun,noclouds,8,"1028.5714285714284,500",
,,,,,,,de,de,de,m,34,,2021-08-06_09h06.46.243,online_experiment,2021.1.4,MacIntel,60.0024001,FALSE,,"Mozilla/5.0 (Macintosh; Intel Mac OS X 10_15_7) AppleWebKit/537.36 (KHTML, like Gecko) Chrome/92.0.4515.107 Safari/537.36",1680,861,1680,1050,,,,,,,,1,4.2928,0.431362305,-0.400823219,1,0,0,next_trial_button,0,75,75,32,1,beach,invisiblesun,noclouds,4,"750,500",
,,,,,,,de,de,de,m,34,,2021-08-06_09h06.46.243,online_experiment,2021.1.4,MacIntel,60.0024001,FALSE,,"Mozilla/5.0 (Macintosh; Intel Mac OS X 10_15_7) AppleWebKit/537.36 (KHTML, like Gecko) Chrome/92.0.4515.107 Safari/537.36",1680,861,1680,1050,,,,,,,,3,7.8982,0.411333124,-0.405900937,1,0,0,next_trial_button,0,76,76,54,1,landscape,visiblesun,noclouds,6,"695.0043821209465,500",
,,,,,,,de,de,de,m,34,,2021-08-06_09h06.46.243,online_experiment,2021.1.4,MacIntel,60.0024001,FALSE,,"Mozilla/5.0 (Macintosh; Intel Mac OS X 10_15_7) AppleWebKit/537.36 (KHTML, like Gecko) Chrome/92.0.4515.107 Safari/537.36",1680,861,1680,1050,,,,,,,,3,3.3321,0.389801781,-0.406810128,1,0,0,next_trial_button,0,77,77,48,1,beach,invisiblesun,noclouds,6,"1028.5714285714284,500",
,,,,,,,de,de,de,m,34,,2021-08-06_09h06.46.243,online_experiment,2021.1.4,MacIntel,60.0024001,FALSE,,"Mozilla/5.0 (Macintosh; Intel Mac OS X 10_15_7) AppleWebKit/537.36 (KHTML, like Gecko) Chrome/92.0.4515.107 Safari/537.36",1680,861,1680,1050,,,,,,,,6,3.4621,0.38796689,-0.38898234,1,0,0,next_trial_button,0,78,78,3,1,beach,visiblesun,yesclouds,0,"1152.5122276567363,500",
,,,,,,,de,de,de,m,34,,2021-08-06_09h06.46.243,online_experiment,2021.1.4,MacIntel,60.0024001,FALSE,,"Mozilla/5.0 (Macintosh; Intel Mac OS X 10_15_7) AppleWebKit/537.36 (KHTML, like Gecko) Chrome/92.0.4515.107 Safari/537.36",1680,861,1680,1050,,,,,,,,6,2.074,0.392277948,-0.399390288,1,0,0,next_trial_button,0,79,79,27,1,beach,visiblesun,yesclouds,3,"752.8089887640449,500",
,,,,,,,de,de,de,m,34,,2021-08-06_09h06.46.243,online_experiment,2021.1.4,MacIntel,60.0024001,FALSE,,"Mozilla/5.0 (Macintosh; Intel Mac OS X 10_15_7) AppleWebKit/537.36 (KHTML, like Gecko) Chrome/92.0.4515.107 Safari/537.36",1680,861,1680,1050,,,,,,,,,,,,,,,,,,,,,,,,,"752.8089887640449,500",488.8145
