language_mouse.x,language_mouse.y,language_mouse.leftButton,language_mouse.midButton,language_mouse.rightButton,language_mouse.time,language_mouse.clicked_name,nationality,mother_tongue,homeland,gender,age,email,date,expName,psychopyVersion,OS,frameRate,fbclid,cancel_experiment,cancel_reasons,client_agent_information,windowWidth,windowHeight,xRes,yRes,start_exp_mouse.x,start_exp_mouse.y,start_exp_mouse.leftButton,start_exp_mouse.midButton,start_exp_mouse.rightButton,start_exp_mouse.time,start_exp_mouse.clicked_name,rating_slider.response,rating_slider.rt,next_trial_mouse.x,next_trial_mouse.y,next_trial_mouse.leftButton,next_trial_mouse.midButton,next_trial_mouse.rightButton,next_trial_mouse.clicked_name,trials.thisRepN,trials.thisTrialN,trials.thisN,trials.thisIndex,trials.ran,environment,sunVisibility,cloudVisibility,imageId,imgSize,globalClockTime
0.307407425,-0.228703771,1,0,0,1.6504,gr_flag,gr,gr,gr,m,38,,2021-08-31_19h46.56.832,online_experiment,2021.1.4,Win32,59.41064639,IwAR1g6JXnsm9GC64iW07idP7sHdg5giBRkKhRXazKp7gtRyQNf5ujD3vr4wM,FALSE,,"Mozilla/5.0 (Windows NT 10.0; Win64; x64) AppleWebKit/537.36 (KHTML, like Gecko) Chrome/92.0.4515.159 Safari/537.36",1536,722,1536,864,,,,,,,,,,,,,,,,,,,,,,,,,,
,,,,,,,gr,gr,gr,m,38,,2021-08-31_19h46.56.832,online_experiment,2021.1.4,Win32,59.41064639,IwAR1g6JXnsm9GC64iW07idP7sHdg5giBRkKhRXazKp7gtRyQNf5ujD3vr4wM,FALSE,,"Mozilla/5.0 (Windows NT 10.0; Win64; x64) AppleWebKit/537.36 (KHTML, like Gecko) Chrome/92.0.4515.159 Safari/537.36",1536,722,1536,864,0.054629644,-0.442592607,1,0,0,3.3014,cont_gr,4,10.5914,0.528703725,-0.399074087,1,0,0,next_trial_button,0,0,0,31,1,landscape,visiblesun,yesclouds,3,"638.0622837370242,500",
,,,,,,,gr,gr,gr,m,38,,2021-08-31_19h46.56.832,online_experiment,2021.1.4,Win32,59.41064639,IwAR1g6JXnsm9GC64iW07idP7sHdg5giBRkKhRXazKp7gtRyQNf5ujD3vr4wM,FALSE,,"Mozilla/5.0 (Windows NT 10.0; Win64; x64) AppleWebKit/537.36 (KHTML, like Gecko) Chrome/92.0.4515.159 Safari/537.36",1536,722,1536,864,,,,,,,,5,11.4102,0.38611113,-0.414814828,1,0,0,next_trial_button,0,1,1,78,1,landscape,visiblesun,noclouds,9,"666.6666666666666,500",
,,,,,,,gr,gr,gr,m,38,,2021-08-31_19h46.56.832,online_experiment,2021.1.4,Win32,59.41064639,IwAR1g6JXnsm9GC64iW07idP7sHdg5giBRkKhRXazKp7gtRyQNf5ujD3vr4wM,FALSE,,"Mozilla/5.0 (Windows NT 10.0; Win64; x64) AppleWebKit/537.36 (KHTML, like Gecko) Chrome/92.0.4515.159 Safari/537.36",1536,722,1536,864,,,,,,,,7,5.0105,0.358333352,-0.420370384,1,0,0,next_trial_button,0,2,2,1,1,beach,invisiblesun,yesclouds,0,"666.6666666666666,500",
,,,,,,,gr,gr,gr,m,38,,2021-08-31_19h46.56.832,online_experiment,2021.1.4,Win32,59.41064639,IwAR1g6JXnsm9GC64iW07idP7sHdg5giBRkKhRXazKp7gtRyQNf5ujD3vr4wM,FALSE,,"Mozilla/5.0 (Windows NT 10.0; Win64; x64) AppleWebKit/537.36 (KHTML, like Gecko) Chrome/92.0.4515.159 Safari/537.36",1536,722,1536,864,,,,,,,,7,2.8225,0.380555574,-0.439814829,1,0,0,next_trial_button,0,3,3,34,1,beach,visiblesun,noclouds,4,"749.6251874062968,500",
,,,,,,,gr,gr,gr,m,38,,2021-08-31_19h46.56.832,online_experiment,2021.1.4,Win32,59.41064639,IwAR1g6JXnsm9GC64iW07idP7sHdg5giBRkKhRXazKp7gtRyQNf5ujD3vr4wM,FALSE,,"Mozilla/5.0 (Windows NT 10.0; Win64; x64) AppleWebKit/537.36 (KHTML, like Gecko) Chrome/92.0.4515.159 Safari/537.36",1536,722,1536,864,,,,,,,,2,4.2275,0.515740762,-0.375925939,1,0,0,next_trial_button,0,4,4,19,1,beach,visiblesun,yesclouds,2,"770.1393095093882,500",
,,,,,,,gr,gr,gr,m,38,,2021-08-31_19h46.56.832,online_experiment,2021.1.4,Win32,59.41064639,IwAR1g6JXnsm9GC64iW07idP7sHdg5giBRkKhRXazKp7gtRyQNf5ujD3vr4wM,FALSE,,"Mozilla/5.0 (Windows NT 10.0; Win64; x64) AppleWebKit/537.36 (KHTML, like Gecko) Chrome/92.0.4515.159 Safari/537.36",1536,722,1536,864,,,,,,,,8,2.9549,0.357407426,-0.4046297,1,0,0,next_trial_button,0,5,5,29,1,landscape,invisiblesun,yesclouds,3,"749.8660953401178,500",
,,,,,,,gr,gr,gr,m,38,,2021-08-31_19h46.56.832,online_experiment,2021.1.4,Win32,59.41064639,IwAR1g6JXnsm9GC64iW07idP7sHdg5giBRkKhRXazKp7gtRyQNf5ujD3vr4wM,FALSE,,"Mozilla/5.0 (Windows NT 10.0; Win64; x64) AppleWebKit/537.36 (KHTML, like Gecko) Chrome/92.0.4515.159 Safari/537.36",1536,722,1536,864,,,,,,,,7,2.8895,0.348148167,-0.415740754,1,0,0,next_trial_button,0,6,6,79,1,landscape,visiblesun,yesclouds,9,"1028.5714285714284,500",
,,,,,,,gr,gr,gr,m,38,,2021-08-31_19h46.56.832,online_experiment,2021.1.4,Win32,59.41064639,IwAR1g6JXnsm9GC64iW07idP7sHdg5giBRkKhRXazKp7gtRyQNf5ujD3vr4wM,FALSE,,"Mozilla/5.0 (Windows NT 10.0; Win64; x64) AppleWebKit/537.36 (KHTML, like Gecko) Chrome/92.0.4515.159 Safari/537.36",1536,722,1536,864,,,,,,,,9,3.2674,0.447222242,-0.409259329,1,0,0,next_trial_button,0,7,7,33,1,beach,invisiblesun,yesclouds,4,"751.5473032714411,500",
,,,,,,,gr,gr,gr,m,38,,2021-08-31_19h46.56.832,online_experiment,2021.1.4,Win32,59.41064639,IwAR1g6JXnsm9GC64iW07idP7sHdg5giBRkKhRXazKp7gtRyQNf5ujD3vr4wM,FALSE,,"Mozilla/5.0 (Windows NT 10.0; Win64; x64) AppleWebKit/537.36 (KHTML, like Gecko) Chrome/92.0.4515.159 Safari/537.36",1536,722,1536,864,,,,,,,,7,6.7196,0.473148168,-0.411111125,1,0,0,next_trial_button,0,8,8,35,1,beach,visiblesun,yesclouds,4,"750,500",
,,,,,,,gr,gr,gr,m,38,,2021-08-31_19h46.56.832,online_experiment,2021.1.4,Win32,59.41064639,IwAR1g6JXnsm9GC64iW07idP7sHdg5giBRkKhRXazKp7gtRyQNf5ujD3vr4wM,FALSE,,"Mozilla/5.0 (Windows NT 10.0; Win64; x64) AppleWebKit/537.36 (KHTML, like Gecko) Chrome/92.0.4515.159 Safari/537.36",1536,722,1536,864,,,,,,,,2,9.1245,0.371296315,-0.423148218,1,0,0,next_trial_button,0,9,9,40,1,beach,invisiblesun,noclouds,5,"1028.5714285714284,500",
,,,,,,,gr,gr,gr,m,38,,2021-08-31_19h46.56.832,online_experiment,2021.1.4,Win32,59.41064639,IwAR1g6JXnsm9GC64iW07idP7sHdg5giBRkKhRXazKp7gtRyQNf5ujD3vr4wM,FALSE,,"Mozilla/5.0 (Windows NT 10.0; Win64; x64) AppleWebKit/537.36 (KHTML, like Gecko) Chrome/92.0.4515.159 Safari/537.36",1536,722,1536,864,,,,,,,,3,4.6235,0.358333352,-0.442592607,1,0,0,next_trial_button,0,10,10,10,1,beach,visiblesun,noclouds,1,"747.0261697065821,500",
,,,,,,,gr,gr,gr,m,38,,2021-08-31_19h46.56.832,online_experiment,2021.1.4,Win32,59.41064639,IwAR1g6JXnsm9GC64iW07idP7sHdg5giBRkKhRXazKp7gtRyQNf5ujD3vr4wM,FALSE,,"Mozilla/5.0 (Windows NT 10.0; Win64; x64) AppleWebKit/537.36 (KHTML, like Gecko) Chrome/92.0.4515.159 Safari/537.36",1536,722,1536,864,,,,,,,,7,3.8931,0.45000002,-0.41666668,1,0,0,next_trial_button,0,11,11,76,1,landscape,invisiblesun,noclouds,9,"1056.6037735849056,500",
,,,,,,,gr,gr,gr,m,38,,2021-08-31_19h46.56.832,online_experiment,2021.1.4,Win32,59.41064639,IwAR1g6JXnsm9GC64iW07idP7sHdg5giBRkKhRXazKp7gtRyQNf5ujD3vr4wM,FALSE,,"Mozilla/5.0 (Windows NT 10.0; Win64; x64) AppleWebKit/537.36 (KHTML, like Gecko) Chrome/92.0.4515.159 Safari/537.36",1536,722,1536,864,,,,,,,,8,2.5596,0.350000018,-0.412962977,1,0,0,next_trial_button,0,12,12,61,1,landscape,invisiblesun,yesclouds,7,"500,500",
,,,,,,,gr,gr,gr,m,38,,2021-08-31_19h46.56.832,online_experiment,2021.1.4,Win32,59.41064639,IwAR1g6JXnsm9GC64iW07idP7sHdg5giBRkKhRXazKp7gtRyQNf5ujD3vr4wM,FALSE,,"Mozilla/5.0 (Windows NT 10.0; Win64; x64) AppleWebKit/537.36 (KHTML, like Gecko) Chrome/92.0.4515.159 Safari/537.36",1536,722,1536,864,,,,,,,,5,8.67,0.489814948,-0.412962977,1,0,0,next_trial_button,0,13,13,2,1,beach,visiblesun,noclouds,0,"375,500",
,,,,,,,gr,gr,gr,m,38,,2021-08-31_19h46.56.832,online_experiment,2021.1.4,Win32,59.41064639,IwAR1g6JXnsm9GC64iW07idP7sHdg5giBRkKhRXazKp7gtRyQNf5ujD3vr4wM,FALSE,,"Mozilla/5.0 (Windows NT 10.0; Win64; x64) AppleWebKit/537.36 (KHTML, like Gecko) Chrome/92.0.4515.159 Safari/537.36",1536,722,1536,864,,,,,,,,6,3.2544,0.372222241,-0.378703717,1,0,0,next_trial_button,0,14,14,27,1,beach,visiblesun,yesclouds,3,"752.8089887640449,500",
,,,,,,,gr,gr,gr,m,38,,2021-08-31_19h46.56.832,online_experiment,2021.1.4,Win32,59.41064639,IwAR1g6JXnsm9GC64iW07idP7sHdg5giBRkKhRXazKp7gtRyQNf5ujD3vr4wM,FALSE,,"Mozilla/5.0 (Windows NT 10.0; Win64; x64) AppleWebKit/537.36 (KHTML, like Gecko) Chrome/92.0.4515.159 Safari/537.36",1536,722,1536,864,,,,,,,,2,2.5783,0.29722224,-0.429629643,1,0,0,next_trial_button,0,15,15,74,1,beach,visiblesun,noclouds,9,"1028.5714285714284,500",
,,,,,,,gr,gr,gr,m,38,,2021-08-31_19h46.56.832,online_experiment,2021.1.4,Win32,59.41064639,IwAR1g6JXnsm9GC64iW07idP7sHdg5giBRkKhRXazKp7gtRyQNf5ujD3vr4wM,FALSE,,"Mozilla/5.0 (Windows NT 10.0; Win64; x64) AppleWebKit/537.36 (KHTML, like Gecko) Chrome/92.0.4515.159 Safari/537.36",1536,722,1536,864,,,,,,,,8,8.0878,0.403703723,-0.414814828,1,0,0,next_trial_button,0,16,16,53,1,landscape,invisiblesun,yesclouds,6,"750.0695023630803,500",
,,,,,,,gr,gr,gr,m,38,,2021-08-31_19h46.56.832,online_experiment,2021.1.4,Win32,59.41064639,IwAR1g6JXnsm9GC64iW07idP7sHdg5giBRkKhRXazKp7gtRyQNf5ujD3vr4wM,FALSE,,"Mozilla/5.0 (Windows NT 10.0; Win64; x64) AppleWebKit/537.36 (KHTML, like Gecko) Chrome/92.0.4515.159 Safari/537.36",1536,722,1536,864,,,,,,,,9,2.929,0.373148167,-0.432407478,1,0,0,next_trial_button,0,17,17,47,1,landscape,visiblesun,yesclouds,5,"666.6666666666666,500",
,,,,,,,gr,gr,gr,m,38,,2021-08-31_19h46.56.832,online_experiment,2021.1.4,Win32,59.41064639,IwAR1g6JXnsm9GC64iW07idP7sHdg5giBRkKhRXazKp7gtRyQNf5ujD3vr4wM,FALSE,,"Mozilla/5.0 (Windows NT 10.0; Win64; x64) AppleWebKit/537.36 (KHTML, like Gecko) Chrome/92.0.4515.159 Safari/537.36",1536,722,1536,864,,,,,,,,1,3.0931,0.31851865,-0.399074087,1,0,0,next_trial_button,0,18,18,60,1,landscape,invisiblesun,noclouds,7,"666.7268134247564,500",
,,,,,,,gr,gr,gr,m,38,,2021-08-31_19h46.56.832,online_experiment,2021.1.4,Win32,59.41064639,IwAR1g6JXnsm9GC64iW07idP7sHdg5giBRkKhRXazKp7gtRyQNf5ujD3vr4wM,FALSE,,"Mozilla/5.0 (Windows NT 10.0; Win64; x64) AppleWebKit/537.36 (KHTML, like Gecko) Chrome/92.0.4515.159 Safari/537.36",1536,722,1536,864,,,,,,,,1,3.0727,0.434259392,-0.41666668,1,0,0,next_trial_button,0,19,19,72,1,beach,invisiblesun,noclouds,9,"888.8888888888888,500",
,,,,,,,gr,gr,gr,m,38,,2021-08-31_19h46.56.832,online_experiment,2021.1.4,Win32,59.41064639,IwAR1g6JXnsm9GC64iW07idP7sHdg5giBRkKhRXazKp7gtRyQNf5ujD3vr4wM,FALSE,,"Mozilla/5.0 (Windows NT 10.0; Win64; x64) AppleWebKit/537.36 (KHTML, like Gecko) Chrome/92.0.4515.159 Safari/537.36",1536,722,1536,864,,,,,,,,7,3.8739,0.370370389,-0.447222236,1,0,0,next_trial_button,0,20,20,3,1,beach,visiblesun,yesclouds,0,"1152.5122276567363,500",
,,,,,,,gr,gr,gr,m,38,,2021-08-31_19h46.56.832,online_experiment,2021.1.4,Win32,59.41064639,IwAR1g6JXnsm9GC64iW07idP7sHdg5giBRkKhRXazKp7gtRyQNf5ujD3vr4wM,FALSE,,"Mozilla/5.0 (Windows NT 10.0; Win64; x64) AppleWebKit/537.36 (KHTML, like Gecko) Chrome/92.0.4515.159 Safari/537.36",1536,722,1536,864,,,,,,,,9,3.5108,0.341666798,-0.386111181,1,0,0,next_trial_button,0,21,21,11,1,beach,visiblesun,yesclouds,1,"989.8132427843803,500",
,,,,,,,gr,gr,gr,m,38,,2021-08-31_19h46.56.832,online_experiment,2021.1.4,Win32,59.41064639,IwAR1g6JXnsm9GC64iW07idP7sHdg5giBRkKhRXazKp7gtRyQNf5ujD3vr4wM,FALSE,,"Mozilla/5.0 (Windows NT 10.0; Win64; x64) AppleWebKit/537.36 (KHTML, like Gecko) Chrome/92.0.4515.159 Safari/537.36",1536,722,1536,864,,,,,,,,4,6.8526,0.398148167,-0.388888902,1,0,0,next_trial_button,0,22,22,43,1,beach,visiblesun,yesclouds,5,"750,500",
,,,,,,,gr,gr,gr,m,38,,2021-08-31_19h46.56.832,online_experiment,2021.1.4,Win32,59.41064639,IwAR1g6JXnsm9GC64iW07idP7sHdg5giBRkKhRXazKp7gtRyQNf5ujD3vr4wM,FALSE,,"Mozilla/5.0 (Windows NT 10.0; Win64; x64) AppleWebKit/537.36 (KHTML, like Gecko) Chrome/92.0.4515.159 Safari/537.36",1536,722,1536,864,,,,,,,,2,3.581,0.373148167,-0.424074088,1,0,0,next_trial_button,0,23,23,5,1,landscape,invisiblesun,yesclouds,0,"750.4690431519699,500",
,,,,,,,gr,gr,gr,m,38,,2021-08-31_19h46.56.832,online_experiment,2021.1.4,Win32,59.41064639,IwAR1g6JXnsm9GC64iW07idP7sHdg5giBRkKhRXazKp7gtRyQNf5ujD3vr4wM,FALSE,,"Mozilla/5.0 (Windows NT 10.0; Win64; x64) AppleWebKit/537.36 (KHTML, like Gecko) Chrome/92.0.4515.159 Safari/537.36",1536,722,1536,864,,,,,,,,7,6.3793,0.406481614,-0.430555569,1,0,0,next_trial_button,0,24,24,25,1,beach,invisiblesun,yesclouds,3,"750.4690431519699,500",
,,,,,,,gr,gr,gr,m,38,,2021-08-31_19h46.56.832,online_experiment,2021.1.4,Win32,59.41064639,IwAR1g6JXnsm9GC64iW07idP7sHdg5giBRkKhRXazKp7gtRyQNf5ujD3vr4wM,FALSE,,"Mozilla/5.0 (Windows NT 10.0; Win64; x64) AppleWebKit/537.36 (KHTML, like Gecko) Chrome/92.0.4515.159 Safari/537.36",1536,722,1536,864,,,,,,,,9,2.9729,0.357407426,-0.394444458,1,0,0,next_trial_button,0,25,25,51,1,beach,visiblesun,yesclouds,6,"657.1279916753382,500",
,,,,,,,gr,gr,gr,m,38,,2021-08-31_19h46.56.832,online_experiment,2021.1.4,Win32,59.41064639,IwAR1g6JXnsm9GC64iW07idP7sHdg5giBRkKhRXazKp7gtRyQNf5ujD3vr4wM,FALSE,,"Mozilla/5.0 (Windows NT 10.0; Win64; x64) AppleWebKit/537.36 (KHTML, like Gecko) Chrome/92.0.4515.159 Safari/537.36",1536,722,1536,864,,,,,,,,9,2.8285,0.337962981,-0.418518589,1,0,0,next_trial_button,0,26,26,36,1,landscape,invisiblesun,noclouds,4,"281.25,500",
,,,,,,,gr,gr,gr,m,38,,2021-08-31_19h46.56.832,online_experiment,2021.1.4,Win32,59.41064639,IwAR1g6JXnsm9GC64iW07idP7sHdg5giBRkKhRXazKp7gtRyQNf5ujD3vr4wM,FALSE,,"Mozilla/5.0 (Windows NT 10.0; Win64; x64) AppleWebKit/537.36 (KHTML, like Gecko) Chrome/92.0.4515.159 Safari/537.36",1536,722,1536,864,,,,,,,,8,4.0117,0.337037168,-0.413888959,1,0,0,next_trial_button,0,27,27,67,1,beach,visiblesun,yesclouds,8,"748.1481481481482,500",
,,,,,,,gr,gr,gr,m,38,,2021-08-31_19h46.56.832,online_experiment,2021.1.4,Win32,59.41064639,IwAR1g6JXnsm9GC64iW07idP7sHdg5giBRkKhRXazKp7gtRyQNf5ujD3vr4wM,FALSE,,"Mozilla/5.0 (Windows NT 10.0; Win64; x64) AppleWebKit/537.36 (KHTML, like Gecko) Chrome/92.0.4515.159 Safari/537.36",1536,722,1536,864,,,,,,,,3,16.9308,0.389814834,-0.419444458,1,0,0,next_trial_button,0,28,28,8,1,beach,invisiblesun,noclouds,1,"1215.1898734177216,500",
,,,,,,,gr,gr,gr,m,38,,2021-08-31_19h46.56.832,online_experiment,2021.1.4,Win32,59.41064639,IwAR1g6JXnsm9GC64iW07idP7sHdg5giBRkKhRXazKp7gtRyQNf5ujD3vr4wM,FALSE,,"Mozilla/5.0 (Windows NT 10.0; Win64; x64) AppleWebKit/537.36 (KHTML, like Gecko) Chrome/92.0.4515.159 Safari/537.36",1536,722,1536,864,,,,,,,,7,2.4511,0.350926057,-0.425000014,1,0,0,next_trial_button,0,29,29,46,1,landscape,visiblesun,noclouds,5,"750,500",
,,,,,,,gr,gr,gr,m,38,,2021-08-31_19h46.56.832,online_experiment,2021.1.4,Win32,59.41064639,IwAR1g6JXnsm9GC64iW07idP7sHdg5giBRkKhRXazKp7gtRyQNf5ujD3vr4wM,FALSE,,"Mozilla/5.0 (Windows NT 10.0; Win64; x64) AppleWebKit/537.36 (KHTML, like Gecko) Chrome/92.0.4515.159 Safari/537.36",1536,722,1536,864,,,,,,,,8,2.593,0.403703723,-0.418518589,1,0,0,next_trial_button,0,30,30,6,1,landscape,visiblesun,noclouds,0,"1413.8005159071367,500",
,,,,,,,gr,gr,gr,m,38,,2021-08-31_19h46.56.832,online_experiment,2021.1.4,Win32,59.41064639,IwAR1g6JXnsm9GC64iW07idP7sHdg5giBRkKhRXazKp7gtRyQNf5ujD3vr4wM,FALSE,,"Mozilla/5.0 (Windows NT 10.0; Win64; x64) AppleWebKit/537.36 (KHTML, like Gecko) Chrome/92.0.4515.159 Safari/537.36",1536,722,1536,864,,,,,,,,8,4.7917,0.335185203,-0.377777791,1,0,0,next_trial_button,0,31,31,57,1,beach,invisiblesun,yesclouds,7,"749.707488299532,500",
,,,,,,,gr,gr,gr,m,38,,2021-08-31_19h46.56.832,online_experiment,2021.1.4,Win32,59.41064639,IwAR1g6JXnsm9GC64iW07idP7sHdg5giBRkKhRXazKp7gtRyQNf5ujD3vr4wM,FALSE,,"Mozilla/5.0 (Windows NT 10.0; Win64; x64) AppleWebKit/537.36 (KHTML, like Gecko) Chrome/92.0.4515.159 Safari/537.36",1536,722,1536,864,,,,,,,,7,7.255,0.418518538,-0.426851866,1,0,0,next_trial_button,0,32,32,50,1,beach,visiblesun,noclouds,6,"666.6666666666666,500",
,,,,,,,gr,gr,gr,m,38,,2021-08-31_19h46.56.832,online_experiment,2021.1.4,Win32,59.41064639,IwAR1g6JXnsm9GC64iW07idP7sHdg5giBRkKhRXazKp7gtRyQNf5ujD3vr4wM,FALSE,,"Mozilla/5.0 (Windows NT 10.0; Win64; x64) AppleWebKit/537.36 (KHTML, like Gecko) Chrome/92.0.4515.159 Safari/537.36",1536,722,1536,864,,,,,,,,8,5.1684,0.30925939,-0.437037108,1,0,0,next_trial_button,0,33,33,12,1,landscape,invisiblesun,noclouds,1,"666.6666666666666,500",
,,,,,,,gr,gr,gr,m,38,,2021-08-31_19h46.56.832,online_experiment,2021.1.4,Win32,59.41064639,IwAR1g6JXnsm9GC64iW07idP7sHdg5giBRkKhRXazKp7gtRyQNf5ujD3vr4wM,FALSE,,"Mozilla/5.0 (Windows NT 10.0; Win64; x64) AppleWebKit/537.36 (KHTML, like Gecko) Chrome/92.0.4515.159 Safari/537.36",1536,722,1536,864,,,,,,,,3,6.6745,0.327777909,-0.437962977,1,0,0,next_trial_button,0,34,34,26,1,beach,visiblesun,noclouds,3,"888.8888888888888,500",
,,,,,,,gr,gr,gr,m,38,,2021-08-31_19h46.56.832,online_experiment,2021.1.4,Win32,59.41064639,IwAR1g6JXnsm9GC64iW07idP7sHdg5giBRkKhRXazKp7gtRyQNf5ujD3vr4wM,FALSE,,"Mozilla/5.0 (Windows NT 10.0; Win64; x64) AppleWebKit/537.36 (KHTML, like Gecko) Chrome/92.0.4515.159 Safari/537.36",1536,722,1536,864,,,,,,,,8,9.4047,0.338888907,-0.427777848,1,0,0,next_trial_button,0,35,35,22,1,landscape,visiblesun,noclouds,2,"749.3333333333333,500",
,,,,,,,gr,gr,gr,m,38,,2021-08-31_19h46.56.832,online_experiment,2021.1.4,Win32,59.41064639,IwAR1g6JXnsm9GC64iW07idP7sHdg5giBRkKhRXazKp7gtRyQNf5ujD3vr4wM,FALSE,,"Mozilla/5.0 (Windows NT 10.0; Win64; x64) AppleWebKit/537.36 (KHTML, like Gecko) Chrome/92.0.4515.159 Safari/537.36",1536,722,1536,864,,,,,,,,6,18.3636,0.505555576,-0.45092594,1,0,0,next_trial_button,0,36,36,13,1,landscape,invisiblesun,yesclouds,1,"783.1192660550458,500",
,,,,,,,gr,gr,gr,m,38,,2021-08-31_19h46.56.832,online_experiment,2021.1.4,Win32,59.41064639,IwAR1g6JXnsm9GC64iW07idP7sHdg5giBRkKhRXazKp7gtRyQNf5ujD3vr4wM,FALSE,,"Mozilla/5.0 (Windows NT 10.0; Win64; x64) AppleWebKit/537.36 (KHTML, like Gecko) Chrome/92.0.4515.159 Safari/537.36",1536,722,1536,864,,,,,,,,7,3.4213,0.337037168,-0.407407421,1,0,0,next_trial_button,0,37,37,9,1,beach,invisiblesun,yesclouds,1,"750,500",
,,,,,,,gr,gr,gr,m,38,,2021-08-31_19h46.56.832,online_experiment,2021.1.4,Win32,59.41064639,IwAR1g6JXnsm9GC64iW07idP7sHdg5giBRkKhRXazKp7gtRyQNf5ujD3vr4wM,FALSE,,"Mozilla/5.0 (Windows NT 10.0; Win64; x64) AppleWebKit/537.36 (KHTML, like Gecko) Chrome/92.0.4515.159 Safari/537.36",1536,722,1536,864,,,,,,,,6,3.1362,0.341666798,-0.435185199,1,0,0,next_trial_button,0,38,38,49,1,beach,invisiblesun,yesclouds,6,"858.4474885844749,500",
,,,,,,,gr,gr,gr,m,38,,2021-08-31_19h46.56.832,online_experiment,2021.1.4,Win32,59.41064639,IwAR1g6JXnsm9GC64iW07idP7sHdg5giBRkKhRXazKp7gtRyQNf5ujD3vr4wM,FALSE,,"Mozilla/5.0 (Windows NT 10.0; Win64; x64) AppleWebKit/537.36 (KHTML, like Gecko) Chrome/92.0.4515.159 Safari/537.36",1536,722,1536,864,,,,,,,,5,4.1594,0.437037057,-0.420370384,1,0,0,next_trial_button,0,39,39,71,1,landscape,visiblesun,yesclouds,8,"666.6666666666666,500",
,,,,,,,gr,gr,gr,m,38,,2021-08-31_19h46.56.832,online_experiment,2021.1.4,Win32,59.41064639,IwAR1g6JXnsm9GC64iW07idP7sHdg5giBRkKhRXazKp7gtRyQNf5ujD3vr4wM,FALSE,,"Mozilla/5.0 (Windows NT 10.0; Win64; x64) AppleWebKit/537.36 (KHTML, like Gecko) Chrome/92.0.4515.159 Safari/537.36",1536,722,1536,864,,,,,,,,3,6.479,0.429629762,-0.445370384,1,0,0,next_trial_button,0,40,40,77,1,landscape,invisiblesun,yesclouds,9,"888.8888888888888,500",
,,,,,,,gr,gr,gr,m,38,,2021-08-31_19h46.56.832,online_experiment,2021.1.4,Win32,59.41064639,IwAR1g6JXnsm9GC64iW07idP7sHdg5giBRkKhRXazKp7gtRyQNf5ujD3vr4wM,FALSE,,"Mozilla/5.0 (Windows NT 10.0; Win64; x64) AppleWebKit/537.36 (KHTML, like Gecko) Chrome/92.0.4515.159 Safari/537.36",1536,722,1536,864,,,,,,,,3,4.6364,0.429629762,-0.379629643,1,0,0,next_trial_button,0,41,41,55,1,landscape,visiblesun,yesclouds,6,"749.8819083608881,500",
,,,,,,,gr,gr,gr,m,38,,2021-08-31_19h46.56.832,online_experiment,2021.1.4,Win32,59.41064639,IwAR1g6JXnsm9GC64iW07idP7sHdg5giBRkKhRXazKp7gtRyQNf5ujD3vr4wM,FALSE,,"Mozilla/5.0 (Windows NT 10.0; Win64; x64) AppleWebKit/537.36 (KHTML, like Gecko) Chrome/92.0.4515.159 Safari/537.36",1536,722,1536,864,,,,,,,,2,7.6055,0.50925928,-0.437962977,1,0,0,next_trial_button,0,42,42,75,1,beach,visiblesun,yesclouds,9,"1029.6010296010297,500",
,,,,,,,gr,gr,gr,m,38,,2021-08-31_19h46.56.832,online_experiment,2021.1.4,Win32,59.41064639,IwAR1g6JXnsm9GC64iW07idP7sHdg5giBRkKhRXazKp7gtRyQNf5ujD3vr4wM,FALSE,,"Mozilla/5.0 (Windows NT 10.0; Win64; x64) AppleWebKit/537.36 (KHTML, like Gecko) Chrome/92.0.4515.159 Safari/537.36",1536,722,1536,864,,,,,,,,8,4.6512,0.368518537,-0.403703717,1,0,0,next_trial_button,0,43,43,52,1,landscape,invisiblesun,noclouds,6,"666.6666666666666,500",
,,,,,,,gr,gr,gr,m,38,,2021-08-31_19h46.56.832,online_experiment,2021.1.4,Win32,59.41064639,IwAR1g6JXnsm9GC64iW07idP7sHdg5giBRkKhRXazKp7gtRyQNf5ujD3vr4wM,FALSE,,"Mozilla/5.0 (Windows NT 10.0; Win64; x64) AppleWebKit/537.36 (KHTML, like Gecko) Chrome/92.0.4515.159 Safari/537.36",1536,722,1536,864,,,,,,,,7,4.2207,0.411111244,-0.415740754,1,0,0,next_trial_button,0,44,44,23,1,landscape,visiblesun,yesclouds,2,"767.97829036635,500",
,,,,,,,gr,gr,gr,m,38,,2021-08-31_19h46.56.832,online_experiment,2021.1.4,Win32,59.41064639,IwAR1g6JXnsm9GC64iW07idP7sHdg5giBRkKhRXazKp7gtRyQNf5ujD3vr4wM,FALSE,,"Mozilla/5.0 (Windows NT 10.0; Win64; x64) AppleWebKit/537.36 (KHTML, like Gecko) Chrome/92.0.4515.159 Safari/537.36",1536,722,1536,864,,,,,,,,8,6.3919,0.38611113,-0.409259329,1,0,0,next_trial_button,0,45,45,15,1,landscape,visiblesun,yesclouds,1,"333.3333333333333,500",
,,,,,,,gr,gr,gr,m,38,,2021-08-31_19h46.56.832,online_experiment,2021.1.4,Win32,59.41064639,IwAR1g6JXnsm9GC64iW07idP7sHdg5giBRkKhRXazKp7gtRyQNf5ujD3vr4wM,FALSE,,"Mozilla/5.0 (Windows NT 10.0; Win64; x64) AppleWebKit/537.36 (KHTML, like Gecko) Chrome/92.0.4515.159 Safari/537.36",1536,722,1536,864,,,,,,,,8,3.8413,0.367592611,-0.409259329,1,0,0,next_trial_button,0,46,46,73,1,beach,invisiblesun,yesclouds,9,"1028.5714285714284,500",
,,,,,,,gr,gr,gr,m,38,,2021-08-31_19h46.56.832,online_experiment,2021.1.4,Win32,59.41064639,IwAR1g6JXnsm9GC64iW07idP7sHdg5giBRkKhRXazKp7gtRyQNf5ujD3vr4wM,FALSE,,"Mozilla/5.0 (Windows NT 10.0; Win64; x64) AppleWebKit/537.36 (KHTML, like Gecko) Chrome/92.0.4515.159 Safari/537.36",1536,722,1536,864,,,,,,,,2,2.8089,0.407407427,-0.383333346,1,0,0,next_trial_button,0,47,47,28,1,landscape,invisiblesun,noclouds,3,"888.8888888888888,500",
,,,,,,,gr,gr,gr,m,38,,2021-08-31_19h46.56.832,online_experiment,2021.1.4,Win32,59.41064639,IwAR1g6JXnsm9GC64iW07idP7sHdg5giBRkKhRXazKp7gtRyQNf5ujD3vr4wM,FALSE,,"Mozilla/5.0 (Windows NT 10.0; Win64; x64) AppleWebKit/537.36 (KHTML, like Gecko) Chrome/92.0.4515.159 Safari/537.36",1536,722,1536,864,,,,,,,,5,5.6055,0.39537039,-0.417592606,1,0,0,next_trial_button,0,48,48,18,1,beach,visiblesun,noclouds,2,"666.6666666666666,500",
,,,,,,,gr,gr,gr,m,38,,2021-08-31_19h46.56.832,online_experiment,2021.1.4,Win32,59.41064639,IwAR1g6JXnsm9GC64iW07idP7sHdg5giBRkKhRXazKp7gtRyQNf5ujD3vr4wM,FALSE,,"Mozilla/5.0 (Windows NT 10.0; Win64; x64) AppleWebKit/537.36 (KHTML, like Gecko) Chrome/92.0.4515.159 Safari/537.36",1536,722,1536,864,,,,,,,,7,4.6905,0.323148279,-0.401851865,1,0,0,next_trial_button,0,49,49,59,1,beach,visiblesun,yesclouds,7,"888.9689978370584,500",
,,,,,,,gr,gr,gr,m,38,,2021-08-31_19h46.56.832,online_experiment,2021.1.4,Win32,59.41064639,IwAR1g6JXnsm9GC64iW07idP7sHdg5giBRkKhRXazKp7gtRyQNf5ujD3vr4wM,FALSE,,"Mozilla/5.0 (Windows NT 10.0; Win64; x64) AppleWebKit/537.36 (KHTML, like Gecko) Chrome/92.0.4515.159 Safari/537.36",1536,722,1536,864,,,,,,,,8,3.0096,0.35185187,-0.430555569,1,0,0,next_trial_button,0,50,50,21,1,landscape,invisiblesun,yesclouds,2,"750,500",
,,,,,,,gr,gr,gr,m,38,,2021-08-31_19h46.56.832,online_experiment,2021.1.4,Win32,59.41064639,IwAR1g6JXnsm9GC64iW07idP7sHdg5giBRkKhRXazKp7gtRyQNf5ujD3vr4wM,FALSE,,"Mozilla/5.0 (Windows NT 10.0; Win64; x64) AppleWebKit/537.36 (KHTML, like Gecko) Chrome/92.0.4515.159 Safari/537.36",1536,722,1536,864,,,,,,,,8,7.0135,0.31388902,-0.431481495,1,0,0,next_trial_button,0,51,51,65,1,beach,invisiblesun,yesclouds,8,"750,500",
,,,,,,,gr,gr,gr,m,38,,2021-08-31_19h46.56.832,online_experiment,2021.1.4,Win32,59.41064639,IwAR1g6JXnsm9GC64iW07idP7sHdg5giBRkKhRXazKp7gtRyQNf5ujD3vr4wM,FALSE,,"Mozilla/5.0 (Windows NT 10.0; Win64; x64) AppleWebKit/537.36 (KHTML, like Gecko) Chrome/92.0.4515.159 Safari/537.36",1536,722,1536,864,,,,,,,,7,16.5183,0.460185205,-0.42592594,1,0,0,next_trial_button,0,52,52,38,1,landscape,visiblesun,noclouds,4,"733.3333333333333,500",
,,,,,,,gr,gr,gr,m,38,,2021-08-31_19h46.56.832,online_experiment,2021.1.4,Win32,59.41064639,IwAR1g6JXnsm9GC64iW07idP7sHdg5giBRkKhRXazKp7gtRyQNf5ujD3vr4wM,FALSE,,"Mozilla/5.0 (Windows NT 10.0; Win64; x64) AppleWebKit/537.36 (KHTML, like Gecko) Chrome/92.0.4515.159 Safari/537.36",1536,722,1536,864,,,,,,,,9,3.7842,0.430555575,-0.41666668,1,0,0,next_trial_button,0,53,53,45,1,landscape,invisiblesun,yesclouds,5,"749.6251874062968,500",
,,,,,,,gr,gr,gr,m,38,,2021-08-31_19h46.56.832,online_experiment,2021.1.4,Win32,59.41064639,IwAR1g6JXnsm9GC64iW07idP7sHdg5giBRkKhRXazKp7gtRyQNf5ujD3vr4wM,FALSE,,"Mozilla/5.0 (Windows NT 10.0; Win64; x64) AppleWebKit/537.36 (KHTML, like Gecko) Chrome/92.0.4515.159 Safari/537.36",1536,722,1536,864,,,,,,,,7,4.8228,0.369444576,-0.390740811,1,0,0,next_trial_button,0,54,54,17,1,beach,invisiblesun,yesclouds,2,"684.8635235732011,500",
,,,,,,,gr,gr,gr,m,38,,2021-08-31_19h46.56.832,online_experiment,2021.1.4,Win32,59.41064639,IwAR1g6JXnsm9GC64iW07idP7sHdg5giBRkKhRXazKp7gtRyQNf5ujD3vr4wM,FALSE,,"Mozilla/5.0 (Windows NT 10.0; Win64; x64) AppleWebKit/537.36 (KHTML, like Gecko) Chrome/92.0.4515.159 Safari/537.36",1536,722,1536,864,,,,,,,,7,3.1123,0.371296315,-0.411111125,1,0,0,next_trial_button,0,55,55,41,1,beach,invisiblesun,yesclouds,5,"1248.4394506866417,500",
,,,,,,,gr,gr,gr,m,38,,2021-08-31_19h46.56.832,online_experiment,2021.1.4,Win32,59.41064639,IwAR1g6JXnsm9GC64iW07idP7sHdg5giBRkKhRXazKp7gtRyQNf5ujD3vr4wM,FALSE,,"Mozilla/5.0 (Windows NT 10.0; Win64; x64) AppleWebKit/537.36 (KHTML, like Gecko) Chrome/92.0.4515.159 Safari/537.36",1536,722,1536,864,,,,,,,,6,3.6904,0.357407426,-0.41666668,1,0,0,next_trial_button,0,56,56,58,1,beach,visiblesun,noclouds,7,"1028.5714285714284,500",
,,,,,,,gr,gr,gr,m,38,,2021-08-31_19h46.56.832,online_experiment,2021.1.4,Win32,59.41064639,IwAR1g6JXnsm9GC64iW07idP7sHdg5giBRkKhRXazKp7gtRyQNf5ujD3vr4wM,FALSE,,"Mozilla/5.0 (Windows NT 10.0; Win64; x64) AppleWebKit/537.36 (KHTML, like Gecko) Chrome/92.0.4515.159 Safari/537.36",1536,722,1536,864,,,,,,,,4,8.2514,0.437962983,-0.403703717,1,0,0,next_trial_button,0,57,57,48,1,beach,invisiblesun,noclouds,6,"1028.5714285714284,500",
,,,,,,,gr,gr,gr,m,38,,2021-08-31_19h46.56.832,online_experiment,2021.1.4,Win32,59.41064639,IwAR1g6JXnsm9GC64iW07idP7sHdg5giBRkKhRXazKp7gtRyQNf5ujD3vr4wM,FALSE,,"Mozilla/5.0 (Windows NT 10.0; Win64; x64) AppleWebKit/537.36 (KHTML, like Gecko) Chrome/92.0.4515.159 Safari/537.36",1536,722,1536,864,,,,,,,,7,3.8556,0.352777796,-0.429629643,1,0,0,next_trial_button,0,58,58,20,1,landscape,invisiblesun,noclouds,2,"755.192878338279,500",
,,,,,,,gr,gr,gr,m,38,,2021-08-31_19h46.56.832,online_experiment,2021.1.4,Win32,59.41064639,IwAR1g6JXnsm9GC64iW07idP7sHdg5giBRkKhRXazKp7gtRyQNf5ujD3vr4wM,FALSE,,"Mozilla/5.0 (Windows NT 10.0; Win64; x64) AppleWebKit/537.36 (KHTML, like Gecko) Chrome/92.0.4515.159 Safari/537.36",1536,722,1536,864,,,,,,,,2,5.4425,0.429629762,-0.390740811,1,0,0,next_trial_button,0,59,59,32,1,beach,invisiblesun,noclouds,4,"750,500",
,,,,,,,gr,gr,gr,m,38,,2021-08-31_19h46.56.832,online_experiment,2021.1.4,Win32,59.41064639,IwAR1g6JXnsm9GC64iW07idP7sHdg5giBRkKhRXazKp7gtRyQNf5ujD3vr4wM,FALSE,,"Mozilla/5.0 (Windows NT 10.0; Win64; x64) AppleWebKit/537.36 (KHTML, like Gecko) Chrome/92.0.4515.159 Safari/537.36",1536,722,1536,864,,,,,,,,3,3.3332,0.383333465,-0.444444459,1,0,0,next_trial_button,0,60,60,16,1,beach,invisiblesun,noclouds,2,"752.8089887640449,500",
,,,,,,,gr,gr,gr,m,38,,2021-08-31_19h46.56.832,online_experiment,2021.1.4,Win32,59.41064639,IwAR1g6JXnsm9GC64iW07idP7sHdg5giBRkKhRXazKp7gtRyQNf5ujD3vr4wM,FALSE,,"Mozilla/5.0 (Windows NT 10.0; Win64; x64) AppleWebKit/537.36 (KHTML, like Gecko) Chrome/92.0.4515.159 Safari/537.36",1536,722,1536,864,,,,,,,,6,9.2253,0.402777797,-0.440740755,1,0,0,next_trial_button,0,61,61,0,1,beach,invisiblesun,noclouds,0,"750,500",
,,,,,,,gr,gr,gr,m,38,,2021-08-31_19h46.56.832,online_experiment,2021.1.4,Win32,59.41064639,IwAR1g6JXnsm9GC64iW07idP7sHdg5giBRkKhRXazKp7gtRyQNf5ujD3vr4wM,FALSE,,"Mozilla/5.0 (Windows NT 10.0; Win64; x64) AppleWebKit/537.36 (KHTML, like Gecko) Chrome/92.0.4515.159 Safari/537.36",1536,722,1536,864,,,,,,,,7,4.3452,0.374074206,-0.423148218,1,0,0,next_trial_button,0,62,62,70,1,landscape,visiblesun,noclouds,8,"666.6666666666666,500",
,,,,,,,gr,gr,gr,m,38,,2021-08-31_19h46.56.832,online_experiment,2021.1.4,Win32,59.41064639,IwAR1g6JXnsm9GC64iW07idP7sHdg5giBRkKhRXazKp7gtRyQNf5ujD3vr4wM,FALSE,,"Mozilla/5.0 (Windows NT 10.0; Win64; x64) AppleWebKit/537.36 (KHTML, like Gecko) Chrome/92.0.4515.159 Safari/537.36",1536,722,1536,864,,,,,,,,7,4.7893,0.38611113,-0.436111125,1,0,0,next_trial_button,0,63,63,69,1,landscape,invisiblesun,yesclouds,8,"750,500",
,,,,,,,gr,gr,gr,m,38,,2021-08-31_19h46.56.832,online_experiment,2021.1.4,Win32,59.41064639,IwAR1g6JXnsm9GC64iW07idP7sHdg5giBRkKhRXazKp7gtRyQNf5ujD3vr4wM,FALSE,,"Mozilla/5.0 (Windows NT 10.0; Win64; x64) AppleWebKit/537.36 (KHTML, like Gecko) Chrome/92.0.4515.159 Safari/537.36",1536,722,1536,864,,,,,,,,4,4.0125,0.428703723,-0.377777791,1,0,0,next_trial_button,0,64,64,64,1,beach,invisiblesun,noclouds,8,"1028.5714285714284,500",
,,,,,,,gr,gr,gr,m,38,,2021-08-31_19h46.56.832,online_experiment,2021.1.4,Win32,59.41064639,IwAR1g6JXnsm9GC64iW07idP7sHdg5giBRkKhRXazKp7gtRyQNf5ujD3vr4wM,FALSE,,"Mozilla/5.0 (Windows NT 10.0; Win64; x64) AppleWebKit/537.36 (KHTML, like Gecko) Chrome/92.0.4515.159 Safari/537.36",1536,722,1536,864,,,,,,,,2,6.5574,0.474074094,-0.419444458,1,0,0,next_trial_button,0,65,65,42,1,beach,visiblesun,noclouds,5,"834.4594594594595,500",
,,,,,,,gr,gr,gr,m,38,,2021-08-31_19h46.56.832,online_experiment,2021.1.4,Win32,59.41064639,IwAR1g6JXnsm9GC64iW07idP7sHdg5giBRkKhRXazKp7gtRyQNf5ujD3vr4wM,FALSE,,"Mozilla/5.0 (Windows NT 10.0; Win64; x64) AppleWebKit/537.36 (KHTML, like Gecko) Chrome/92.0.4515.159 Safari/537.36",1536,722,1536,864,,,,,,,,1,4.9961,0.362037056,-0.436111125,1,0,0,next_trial_button,0,66,66,39,1,landscape,visiblesun,yesclouds,4,"749.7656982193065,500",
,,,,,,,gr,gr,gr,m,38,,2021-08-31_19h46.56.832,online_experiment,2021.1.4,Win32,59.41064639,IwAR1g6JXnsm9GC64iW07idP7sHdg5giBRkKhRXazKp7gtRyQNf5ujD3vr4wM,FALSE,,"Mozilla/5.0 (Windows NT 10.0; Win64; x64) AppleWebKit/537.36 (KHTML, like Gecko) Chrome/92.0.4515.159 Safari/537.36",1536,722,1536,864,,,,,,,,3,5.8981,0.360185317,-0.446296367,1,0,0,next_trial_button,0,67,67,7,1,landscape,visiblesun,yesclouds,0,"743.421052631579,500",
,,,,,,,gr,gr,gr,m,38,,2021-08-31_19h46.56.832,online_experiment,2021.1.4,Win32,59.41064639,IwAR1g6JXnsm9GC64iW07idP7sHdg5giBRkKhRXazKp7gtRyQNf5ujD3vr4wM,FALSE,,"Mozilla/5.0 (Windows NT 10.0; Win64; x64) AppleWebKit/537.36 (KHTML, like Gecko) Chrome/92.0.4515.159 Safari/537.36",1536,722,1536,864,,,,,,,,3,5.273,0.367592611,-0.401851865,1,0,0,next_trial_button,0,68,68,56,1,beach,invisiblesun,noclouds,7,"1028.5714285714284,500",
,,,,,,,gr,gr,gr,m,38,,2021-08-31_19h46.56.832,online_experiment,2021.1.4,Win32,59.41064639,IwAR1g6JXnsm9GC64iW07idP7sHdg5giBRkKhRXazKp7gtRyQNf5ujD3vr4wM,FALSE,,"Mozilla/5.0 (Windows NT 10.0; Win64; x64) AppleWebKit/537.36 (KHTML, like Gecko) Chrome/92.0.4515.159 Safari/537.36",1536,722,1536,864,,,,,,,,6,4.1765,0.36111113,-0.409259329,1,0,0,next_trial_button,0,69,69,63,1,landscape,visiblesun,yesclouds,7,"331.94444444444446,500",
,,,,,,,gr,gr,gr,m,38,,2021-08-31_19h46.56.832,online_experiment,2021.1.4,Win32,59.41064639,IwAR1g6JXnsm9GC64iW07idP7sHdg5giBRkKhRXazKp7gtRyQNf5ujD3vr4wM,FALSE,,"Mozilla/5.0 (Windows NT 10.0; Win64; x64) AppleWebKit/537.36 (KHTML, like Gecko) Chrome/92.0.4515.159 Safari/537.36",1536,722,1536,864,,,,,,,,8,2.571,0.423148168,-0.432407478,1,0,0,next_trial_button,0,70,70,37,1,landscape,invisiblesun,yesclouds,4,"669.4214876033058,500",
,,,,,,,gr,gr,gr,m,38,,2021-08-31_19h46.56.832,online_experiment,2021.1.4,Win32,59.41064639,IwAR1g6JXnsm9GC64iW07idP7sHdg5giBRkKhRXazKp7gtRyQNf5ujD3vr4wM,FALSE,,"Mozilla/5.0 (Windows NT 10.0; Win64; x64) AppleWebKit/537.36 (KHTML, like Gecko) Chrome/92.0.4515.159 Safari/537.36",1536,722,1536,864,,,,,,,,2,3.2765,0.358333352,-0.406481495,1,0,0,next_trial_button,0,71,71,68,1,landscape,invisiblesun,noclouds,8,"666.6666666666666,500",
,,,,,,,gr,gr,gr,m,38,,2021-08-31_19h46.56.832,online_experiment,2021.1.4,Win32,59.41064639,IwAR1g6JXnsm9GC64iW07idP7sHdg5giBRkKhRXazKp7gtRyQNf5ujD3vr4wM,FALSE,,"Mozilla/5.0 (Windows NT 10.0; Win64; x64) AppleWebKit/537.36 (KHTML, like Gecko) Chrome/92.0.4515.159 Safari/537.36",1536,722,1536,864,,,,,,,,2,3.3712,0.477777798,-0.435185199,1,0,0,next_trial_button,0,72,72,24,1,beach,invisiblesun,noclouds,3,"750.089190153407,500",
,,,,,,,gr,gr,gr,m,38,,2021-08-31_19h46.56.832,online_experiment,2021.1.4,Win32,59.41064639,IwAR1g6JXnsm9GC64iW07idP7sHdg5giBRkKhRXazKp7gtRyQNf5ujD3vr4wM,FALSE,,"Mozilla/5.0 (Windows NT 10.0; Win64; x64) AppleWebKit/537.36 (KHTML, like Gecko) Chrome/92.0.4515.159 Safari/537.36",1536,722,1536,864,,,,,,,,1,2.5758,0.407407427,-0.437037108,1,0,0,next_trial_button,0,73,73,30,1,landscape,visiblesun,noclouds,3,"346.3035019455253,500",
,,,,,,,gr,gr,gr,m,38,,2021-08-31_19h46.56.832,online_experiment,2021.1.4,Win32,59.41064639,IwAR1g6JXnsm9GC64iW07idP7sHdg5giBRkKhRXazKp7gtRyQNf5ujD3vr4wM,FALSE,,"Mozilla/5.0 (Windows NT 10.0; Win64; x64) AppleWebKit/537.36 (KHTML, like Gecko) Chrome/92.0.4515.159 Safari/537.36",1536,722,1536,864,,,,,,,,7,26.3217,0.325925944,-0.412962977,1,0,0,next_trial_button,0,74,74,54,1,landscape,visiblesun,noclouds,6,"695.0043821209465,500",
,,,,,,,gr,gr,gr,m,38,,2021-08-31_19h46.56.832,online_experiment,2021.1.4,Win32,59.41064639,IwAR1g6JXnsm9GC64iW07idP7sHdg5giBRkKhRXazKp7gtRyQNf5ujD3vr4wM,FALSE,,"Mozilla/5.0 (Windows NT 10.0; Win64; x64) AppleWebKit/537.36 (KHTML, like Gecko) Chrome/92.0.4515.159 Safari/537.36",1536,722,1536,864,,,,,,,,7,10.1025,0.388888908,-0.418518589,1,0,0,next_trial_button,0,75,75,4,1,landscape,invisiblesun,noclouds,0,"1276.9171185127807,500",
,,,,,,,gr,gr,gr,m,38,,2021-08-31_19h46.56.832,online_experiment,2021.1.4,Win32,59.41064639,IwAR1g6JXnsm9GC64iW07idP7sHdg5giBRkKhRXazKp7gtRyQNf5ujD3vr4wM,FALSE,,"Mozilla/5.0 (Windows NT 10.0; Win64; x64) AppleWebKit/537.36 (KHTML, like Gecko) Chrome/92.0.4515.159 Safari/537.36",1536,722,1536,864,,,,,,,,3,4.4521,0.348148167,-0.417592606,1,0,0,next_trial_button,0,76,76,44,1,landscape,invisiblesun,noclouds,5,"666.6666666666666,500",
,,,,,,,gr,gr,gr,m,38,,2021-08-31_19h46.56.832,online_experiment,2021.1.4,Win32,59.41064639,IwAR1g6JXnsm9GC64iW07idP7sHdg5giBRkKhRXazKp7gtRyQNf5ujD3vr4wM,FALSE,,"Mozilla/5.0 (Windows NT 10.0; Win64; x64) AppleWebKit/537.36 (KHTML, like Gecko) Chrome/92.0.4515.159 Safari/537.36",1536,722,1536,864,,,,,,,,9,2.8305,0.353703722,-0.420370384,1,0,0,next_trial_button,0,77,77,14,1,landscape,visiblesun,noclouds,1,"745.9919839679359,500",
,,,,,,,gr,gr,gr,m,38,,2021-08-31_19h46.56.832,online_experiment,2021.1.4,Win32,59.41064639,IwAR1g6JXnsm9GC64iW07idP7sHdg5giBRkKhRXazKp7gtRyQNf5ujD3vr4wM,FALSE,,"Mozilla/5.0 (Windows NT 10.0; Win64; x64) AppleWebKit/537.36 (KHTML, like Gecko) Chrome/92.0.4515.159 Safari/537.36",1536,722,1536,864,,,,,,,,6,5.7747,0.413888908,-0.390740811,1,0,0,next_trial_button,0,78,78,62,1,landscape,visiblesun,noclouds,7,"417.42389822807814,500",
,,,,,,,gr,gr,gr,m,38,,2021-08-31_19h46.56.832,online_experiment,2021.1.4,Win32,59.41064639,IwAR1g6JXnsm9GC64iW07idP7sHdg5giBRkKhRXazKp7gtRyQNf5ujD3vr4wM,FALSE,,"Mozilla/5.0 (Windows NT 10.0; Win64; x64) AppleWebKit/537.36 (KHTML, like Gecko) Chrome/92.0.4515.159 Safari/537.36",1536,722,1536,864,,,,,,,,4,11.221,0.409259279,-0.438888903,1,0,0,next_trial_button,0,79,79,66,1,beach,visiblesun,noclouds,8,"1028.5714285714284,500",
,,,,,,,gr,gr,gr,m,38,,2021-08-31_19h46.56.832,online_experiment,2021.1.4,Win32,59.41064639,IwAR1g6JXnsm9GC64iW07idP7sHdg5giBRkKhRXazKp7gtRyQNf5ujD3vr4wM,FALSE,,"Mozilla/5.0 (Windows NT 10.0; Win64; x64) AppleWebKit/537.36 (KHTML, like Gecko) Chrome/92.0.4515.159 Safari/537.36",1536,722,1536,864,,,,,,,,,,,,,,,,,,,,,,,,,"1028.5714285714284,500",598.3546
