language_mouse.x,language_mouse.y,language_mouse.leftButton,language_mouse.midButton,language_mouse.rightButton,language_mouse.time,language_mouse.clicked_name,nationality,mother_tongue,homeland,gender,age,email,date,expName,psychopyVersion,OS,frameRate,cancel_experiment,cancel_reasons,client_agent_information,windowWidth,windowHeight,xRes,yRes,start_exp_mouse.x,start_exp_mouse.y,start_exp_mouse.leftButton,start_exp_mouse.midButton,start_exp_mouse.rightButton,start_exp_mouse.time,start_exp_mouse.clicked_name,rating_slider.response,rating_slider.rt,next_trial_mouse.x,next_trial_mouse.y,next_trial_mouse.leftButton,next_trial_mouse.midButton,next_trial_mouse.rightButton,next_trial_mouse.clicked_name,trials.thisRepN,trials.thisTrialN,trials.thisN,trials.thisIndex,trials.ran,environment,sunVisibility,cloudVisibility,imageId,imgSize,globalClockTime
0.265625,-0.213541667,1,0,0,4.5703,gr_flag,gr,gr,gr,f,18,,2021-08-31_17h23.50.897,online_experiment,2021.1.4,Win32,59.9880024,FALSE,,"Mozilla/5.0 (Windows NT 10.0; Win64; x64) AppleWebKit/537.36 (KHTML, like Gecko) Chrome/92.0.4515.159 Safari/537.36",1366,625,1366,768,,,,,,,,,,,,,,,,,,,,,,,,,,
,,,,,,,gr,gr,gr,f,18,,2021-08-31_17h23.50.897,online_experiment,2021.1.4,Win32,59.9880024,FALSE,,"Mozilla/5.0 (Windows NT 10.0; Win64; x64) AppleWebKit/537.36 (KHTML, like Gecko) Chrome/92.0.4515.159 Safari/537.36",1366,625,1366,768,0.00390625,-0.40234375,1,0,0,48.1771,cont_gr,6,10.3248,0.40234375,-0.416666667,1,0,0,next_trial_button,0,0,0,79,1,landscape,visiblesun,yesclouds,9,"1028.5714285714284,500",
,,,,,,,gr,gr,gr,f,18,,2021-08-31_17h23.50.897,online_experiment,2021.1.4,Win32,59.9880024,FALSE,,"Mozilla/5.0 (Windows NT 10.0; Win64; x64) AppleWebKit/537.36 (KHTML, like Gecko) Chrome/92.0.4515.159 Safari/537.36",1366,625,1366,768,,,,,,,,4,9.9007,0.364583333,-0.399739583,1,0,0,next_trial_button,0,1,1,28,1,landscape,invisiblesun,noclouds,3,"888.8888888888888,500",
,,,,,,,gr,gr,gr,f,18,,2021-08-31_17h23.50.897,online_experiment,2021.1.4,Win32,59.9880024,FALSE,,"Mozilla/5.0 (Windows NT 10.0; Win64; x64) AppleWebKit/537.36 (KHTML, like Gecko) Chrome/92.0.4515.159 Safari/537.36",1366,625,1366,768,,,,,,,,8,5.9093,0.419270833,-0.411458333,1,0,0,next_trial_button,0,2,2,22,1,landscape,visiblesun,noclouds,2,"749.3333333333333,500",
,,,,,,,gr,gr,gr,f,18,,2021-08-31_17h23.50.897,online_experiment,2021.1.4,Win32,59.9880024,FALSE,,"Mozilla/5.0 (Windows NT 10.0; Win64; x64) AppleWebKit/537.36 (KHTML, like Gecko) Chrome/92.0.4515.159 Safari/537.36",1366,625,1366,768,,,,,,,,10,3.7213,0.381510417,-0.434895833,1,0,0,next_trial_button,0,3,3,66,1,beach,visiblesun,noclouds,8,"1028.5714285714284,500",
,,,,,,,gr,gr,gr,f,18,,2021-08-31_17h23.50.897,online_experiment,2021.1.4,Win32,59.9880024,FALSE,,"Mozilla/5.0 (Windows NT 10.0; Win64; x64) AppleWebKit/537.36 (KHTML, like Gecko) Chrome/92.0.4515.159 Safari/537.36",1366,625,1366,768,,,,,,,,8,3.5877,0.329427083,-0.404947917,1,0,0,next_trial_button,0,4,4,72,1,beach,invisiblesun,noclouds,9,"888.8888888888888,500",
,,,,,,,gr,gr,gr,f,18,,2021-08-31_17h23.50.897,online_experiment,2021.1.4,Win32,59.9880024,FALSE,,"Mozilla/5.0 (Windows NT 10.0; Win64; x64) AppleWebKit/537.36 (KHTML, like Gecko) Chrome/92.0.4515.159 Safari/537.36",1366,625,1366,768,,,,,,,,10,7.3879,0.399739583,-0.40625,1,0,0,next_trial_button,0,5,5,59,1,beach,visiblesun,yesclouds,7,"888.9689978370584,500",
,,,,,,,gr,gr,gr,f,18,,2021-08-31_17h23.50.897,online_experiment,2021.1.4,Win32,59.9880024,FALSE,,"Mozilla/5.0 (Windows NT 10.0; Win64; x64) AppleWebKit/537.36 (KHTML, like Gecko) Chrome/92.0.4515.159 Safari/537.36",1366,625,1366,768,,,,,,,,7,6.0526,0.365885417,-0.440104167,1,0,0,next_trial_button,0,6,6,74,1,beach,visiblesun,noclouds,9,"1028.5714285714284,500",
,,,,,,,gr,gr,gr,f,18,,2021-08-31_17h23.50.897,online_experiment,2021.1.4,Win32,59.9880024,FALSE,,"Mozilla/5.0 (Windows NT 10.0; Win64; x64) AppleWebKit/537.36 (KHTML, like Gecko) Chrome/92.0.4515.159 Safari/537.36",1366,625,1366,768,,,,,,,,10,2.1655,0.401041667,-0.419270833,1,0,0,next_trial_button,0,7,7,37,1,landscape,invisiblesun,yesclouds,4,"669.4214876033058,500",
,,,,,,,gr,gr,gr,f,18,,2021-08-31_17h23.50.897,online_experiment,2021.1.4,Win32,59.9880024,FALSE,,"Mozilla/5.0 (Windows NT 10.0; Win64; x64) AppleWebKit/537.36 (KHTML, like Gecko) Chrome/92.0.4515.159 Safari/537.36",1366,625,1366,768,,,,,,,,10,5.9941,0.411458333,-0.407552083,1,0,0,next_trial_button,0,8,8,26,1,beach,visiblesun,noclouds,3,"888.8888888888888,500",
,,,,,,,gr,gr,gr,f,18,,2021-08-31_17h23.50.897,online_experiment,2021.1.4,Win32,59.9880024,FALSE,,"Mozilla/5.0 (Windows NT 10.0; Win64; x64) AppleWebKit/537.36 (KHTML, like Gecko) Chrome/92.0.4515.159 Safari/537.36",1366,625,1366,768,,,,,,,,10,4.3886,0.395833333,-0.442708333,1,0,0,next_trial_button,0,9,9,9,1,beach,invisiblesun,yesclouds,1,"750,500",
,,,,,,,gr,gr,gr,f,18,,2021-08-31_17h23.50.897,online_experiment,2021.1.4,Win32,59.9880024,FALSE,,"Mozilla/5.0 (Windows NT 10.0; Win64; x64) AppleWebKit/537.36 (KHTML, like Gecko) Chrome/92.0.4515.159 Safari/537.36",1366,625,1366,768,,,,,,,,6,4.7024,0.359375,-0.420572917,1,0,0,next_trial_button,0,10,10,77,1,landscape,invisiblesun,yesclouds,9,"888.8888888888888,500",
,,,,,,,gr,gr,gr,f,18,,2021-08-31_17h23.50.897,online_experiment,2021.1.4,Win32,59.9880024,FALSE,,"Mozilla/5.0 (Windows NT 10.0; Win64; x64) AppleWebKit/537.36 (KHTML, like Gecko) Chrome/92.0.4515.159 Safari/537.36",1366,625,1366,768,,,,,,,,7,4.7527,0.407552083,-0.438802083,1,0,0,next_trial_button,0,11,11,49,1,beach,invisiblesun,yesclouds,6,"858.4474885844749,500",
,,,,,,,gr,gr,gr,f,18,,2021-08-31_17h23.50.897,online_experiment,2021.1.4,Win32,59.9880024,FALSE,,"Mozilla/5.0 (Windows NT 10.0; Win64; x64) AppleWebKit/537.36 (KHTML, like Gecko) Chrome/92.0.4515.159 Safari/537.36",1366,625,1366,768,,,,,,,,10,5.9487,0.391927083,-0.423177083,1,0,0,next_trial_button,0,12,12,0,1,beach,invisiblesun,noclouds,0,"750,500",
,,,,,,,gr,gr,gr,f,18,,2021-08-31_17h23.50.897,online_experiment,2021.1.4,Win32,59.9880024,FALSE,,"Mozilla/5.0 (Windows NT 10.0; Win64; x64) AppleWebKit/537.36 (KHTML, like Gecko) Chrome/92.0.4515.159 Safari/537.36",1366,625,1366,768,,,,,,,,7,4.7186,0.365885417,-0.416666667,1,0,0,next_trial_button,0,13,13,56,1,beach,invisiblesun,noclouds,7,"1028.5714285714284,500",
,,,,,,,gr,gr,gr,f,18,,2021-08-31_17h23.50.897,online_experiment,2021.1.4,Win32,59.9880024,FALSE,,"Mozilla/5.0 (Windows NT 10.0; Win64; x64) AppleWebKit/537.36 (KHTML, like Gecko) Chrome/92.0.4515.159 Safari/537.36",1366,625,1366,768,,,,,,,,10,2.2803,0.40625,-0.403645833,1,0,0,next_trial_button,0,14,14,35,1,beach,visiblesun,yesclouds,4,"750,500",
,,,,,,,gr,gr,gr,f,18,,2021-08-31_17h23.50.897,online_experiment,2021.1.4,Win32,59.9880024,FALSE,,"Mozilla/5.0 (Windows NT 10.0; Win64; x64) AppleWebKit/537.36 (KHTML, like Gecko) Chrome/92.0.4515.159 Safari/537.36",1366,625,1366,768,,,,,,,,9,2.9526,0.4140625,-0.424479167,1,0,0,next_trial_button,0,15,15,51,1,beach,visiblesun,yesclouds,6,"657.1279916753382,500",
,,,,,,,gr,gr,gr,f,18,,2021-08-31_17h23.50.897,online_experiment,2021.1.4,Win32,59.9880024,FALSE,,"Mozilla/5.0 (Windows NT 10.0; Win64; x64) AppleWebKit/537.36 (KHTML, like Gecko) Chrome/92.0.4515.159 Safari/537.36",1366,625,1366,768,,,,,,,,10,2.2512,0.34765625,-0.43359375,1,0,0,next_trial_button,0,16,16,14,1,landscape,visiblesun,noclouds,1,"745.9919839679359,500",
,,,,,,,gr,gr,gr,f,18,,2021-08-31_17h23.50.897,online_experiment,2021.1.4,Win32,59.9880024,FALSE,,"Mozilla/5.0 (Windows NT 10.0; Win64; x64) AppleWebKit/537.36 (KHTML, like Gecko) Chrome/92.0.4515.159 Safari/537.36",1366,625,1366,768,,,,,,,,7,3.8043,0.342447917,-0.427083333,1,0,0,next_trial_button,0,17,17,48,1,beach,invisiblesun,noclouds,6,"1028.5714285714284,500",
,,,,,,,gr,gr,gr,f,18,,2021-08-31_17h23.50.897,online_experiment,2021.1.4,Win32,59.9880024,FALSE,,"Mozilla/5.0 (Windows NT 10.0; Win64; x64) AppleWebKit/537.36 (KHTML, like Gecko) Chrome/92.0.4515.159 Safari/537.36",1366,625,1366,768,,,,,,,,9,2.5586,0.352864583,-0.419270833,1,0,0,next_trial_button,0,18,18,12,1,landscape,invisiblesun,noclouds,1,"666.6666666666666,500",
,,,,,,,gr,gr,gr,f,18,,2021-08-31_17h23.50.897,online_experiment,2021.1.4,Win32,59.9880024,FALSE,,"Mozilla/5.0 (Windows NT 10.0; Win64; x64) AppleWebKit/537.36 (KHTML, like Gecko) Chrome/92.0.4515.159 Safari/537.36",1366,625,1366,768,,,,,,,,8,4.1526,0.373697917,-0.423177083,1,0,0,next_trial_button,0,19,19,71,1,landscape,visiblesun,yesclouds,8,"666.6666666666666,500",
,,,,,,,gr,gr,gr,f,18,,2021-08-31_17h23.50.897,online_experiment,2021.1.4,Win32,59.9880024,FALSE,,"Mozilla/5.0 (Windows NT 10.0; Win64; x64) AppleWebKit/537.36 (KHTML, like Gecko) Chrome/92.0.4515.159 Safari/537.36",1366,625,1366,768,,,,,,,,9,6.4071,0.342447917,-0.415364583,1,0,0,next_trial_button,0,20,20,10,1,beach,visiblesun,noclouds,1,"747.0261697065821,500",
,,,,,,,gr,gr,gr,f,18,,2021-08-31_17h23.50.897,online_experiment,2021.1.4,Win32,59.9880024,FALSE,,"Mozilla/5.0 (Windows NT 10.0; Win64; x64) AppleWebKit/537.36 (KHTML, like Gecko) Chrome/92.0.4515.159 Safari/537.36",1366,625,1366,768,,,,,,,,9,2.5674,0.373697917,-0.41015625,1,0,0,next_trial_button,0,21,21,30,1,landscape,visiblesun,noclouds,3,"346.3035019455253,500",
,,,,,,,gr,gr,gr,f,18,,2021-08-31_17h23.50.897,online_experiment,2021.1.4,Win32,59.9880024,FALSE,,"Mozilla/5.0 (Windows NT 10.0; Win64; x64) AppleWebKit/537.36 (KHTML, like Gecko) Chrome/92.0.4515.159 Safari/537.36",1366,625,1366,768,,,,,,,,8,8.8271,0.389322917,-0.41796875,1,0,0,next_trial_button,0,22,22,25,1,beach,invisiblesun,yesclouds,3,"750.4690431519699,500",
,,,,,,,gr,gr,gr,f,18,,2021-08-31_17h23.50.897,online_experiment,2021.1.4,Win32,59.9880024,FALSE,,"Mozilla/5.0 (Windows NT 10.0; Win64; x64) AppleWebKit/537.36 (KHTML, like Gecko) Chrome/92.0.4515.159 Safari/537.36",1366,625,1366,768,,,,,,,,8,10.3035,0.407552083,-0.4140625,1,0,0,next_trial_button,0,23,23,13,1,landscape,invisiblesun,yesclouds,1,"783.1192660550458,500",
,,,,,,,gr,gr,gr,f,18,,2021-08-31_17h23.50.897,online_experiment,2021.1.4,Win32,59.9880024,FALSE,,"Mozilla/5.0 (Windows NT 10.0; Win64; x64) AppleWebKit/537.36 (KHTML, like Gecko) Chrome/92.0.4515.159 Safari/537.36",1366,625,1366,768,,,,,,,,7,6.7813,0.389322917,-0.423177083,1,0,0,next_trial_button,0,24,24,70,1,landscape,visiblesun,noclouds,8,"666.6666666666666,500",
,,,,,,,gr,gr,gr,f,18,,2021-08-31_17h23.50.897,online_experiment,2021.1.4,Win32,59.9880024,FALSE,,"Mozilla/5.0 (Windows NT 10.0; Win64; x64) AppleWebKit/537.36 (KHTML, like Gecko) Chrome/92.0.4515.159 Safari/537.36",1366,625,1366,768,,,,,,,,3,4.7509,0.444010417,-0.415364583,1,0,0,next_trial_button,0,25,25,44,1,landscape,invisiblesun,noclouds,5,"666.6666666666666,500",
,,,,,,,gr,gr,gr,f,18,,2021-08-31_17h23.50.897,online_experiment,2021.1.4,Win32,59.9880024,FALSE,,"Mozilla/5.0 (Windows NT 10.0; Win64; x64) AppleWebKit/537.36 (KHTML, like Gecko) Chrome/92.0.4515.159 Safari/537.36",1366,625,1366,768,,,,,,,,8,2.5039,0.505208333,-0.447916667,1,0,0,next_trial_button,0,26,26,54,1,landscape,visiblesun,noclouds,6,"695.0043821209465,500",
,,,,,,,gr,gr,gr,f,18,,2021-08-31_17h23.50.897,online_experiment,2021.1.4,Win32,59.9880024,FALSE,,"Mozilla/5.0 (Windows NT 10.0; Win64; x64) AppleWebKit/537.36 (KHTML, like Gecko) Chrome/92.0.4515.159 Safari/537.36",1366,625,1366,768,,,,,,,,10,3.2805,0.37890625,-0.399739583,1,0,0,next_trial_button,0,27,27,53,1,landscape,invisiblesun,yesclouds,6,"750.0695023630803,500",
,,,,,,,gr,gr,gr,f,18,,2021-08-31_17h23.50.897,online_experiment,2021.1.4,Win32,59.9880024,FALSE,,"Mozilla/5.0 (Windows NT 10.0; Win64; x64) AppleWebKit/537.36 (KHTML, like Gecko) Chrome/92.0.4515.159 Safari/537.36",1366,625,1366,768,,,,,,,,6,4.4351,0.446614583,-0.45703125,1,0,0,next_trial_button,0,28,28,76,1,landscape,invisiblesun,noclouds,9,"1056.6037735849056,500",
,,,,,,,gr,gr,gr,f,18,,2021-08-31_17h23.50.897,online_experiment,2021.1.4,Win32,59.9880024,FALSE,,"Mozilla/5.0 (Windows NT 10.0; Win64; x64) AppleWebKit/537.36 (KHTML, like Gecko) Chrome/92.0.4515.159 Safari/537.36",1366,625,1366,768,,,,,,,,7,4.6024,0.348958333,-0.440104167,1,0,0,next_trial_button,0,29,29,7,1,landscape,visiblesun,yesclouds,0,"743.421052631579,500",
,,,,,,,gr,gr,gr,f,18,,2021-08-31_17h23.50.897,online_experiment,2021.1.4,Win32,59.9880024,FALSE,,"Mozilla/5.0 (Windows NT 10.0; Win64; x64) AppleWebKit/537.36 (KHTML, like Gecko) Chrome/92.0.4515.159 Safari/537.36",1366,625,1366,768,,,,,,,,9,3.6619,0.358072917,-0.416666667,1,0,0,next_trial_button,0,30,30,52,1,landscape,invisiblesun,noclouds,6,"666.6666666666666,500",
,,,,,,,gr,gr,gr,f,18,,2021-08-31_17h23.50.897,online_experiment,2021.1.4,Win32,59.9880024,FALSE,,"Mozilla/5.0 (Windows NT 10.0; Win64; x64) AppleWebKit/537.36 (KHTML, like Gecko) Chrome/92.0.4515.159 Safari/537.36",1366,625,1366,768,,,,,,,,8,2.0951,0.408854167,-0.427083333,1,0,0,next_trial_button,0,31,31,43,1,beach,visiblesun,yesclouds,5,"750,500",
,,,,,,,gr,gr,gr,f,18,,2021-08-31_17h23.50.897,online_experiment,2021.1.4,Win32,59.9880024,FALSE,,"Mozilla/5.0 (Windows NT 10.0; Win64; x64) AppleWebKit/537.36 (KHTML, like Gecko) Chrome/92.0.4515.159 Safari/537.36",1366,625,1366,768,,,,,,,,10,2.3446,0.369791667,-0.412760417,1,0,0,next_trial_button,0,32,32,20,1,landscape,invisiblesun,noclouds,2,"755.192878338279,500",
,,,,,,,gr,gr,gr,f,18,,2021-08-31_17h23.50.897,online_experiment,2021.1.4,Win32,59.9880024,FALSE,,"Mozilla/5.0 (Windows NT 10.0; Win64; x64) AppleWebKit/537.36 (KHTML, like Gecko) Chrome/92.0.4515.159 Safari/537.36",1366,625,1366,768,,,,,,,,9,2.1532,0.384114583,-0.4140625,1,0,0,next_trial_button,0,33,33,36,1,landscape,invisiblesun,noclouds,4,"281.25,500",
,,,,,,,gr,gr,gr,f,18,,2021-08-31_17h23.50.897,online_experiment,2021.1.4,Win32,59.9880024,FALSE,,"Mozilla/5.0 (Windows NT 10.0; Win64; x64) AppleWebKit/537.36 (KHTML, like Gecko) Chrome/92.0.4515.159 Safari/537.36",1366,625,1366,768,,,,,,,,7,3.0177,0.364583333,-0.397135417,1,0,0,next_trial_button,0,34,34,31,1,landscape,visiblesun,yesclouds,3,"638.0622837370242,500",
,,,,,,,gr,gr,gr,f,18,,2021-08-31_17h23.50.897,online_experiment,2021.1.4,Win32,59.9880024,FALSE,,"Mozilla/5.0 (Windows NT 10.0; Win64; x64) AppleWebKit/537.36 (KHTML, like Gecko) Chrome/92.0.4515.159 Safari/537.36",1366,625,1366,768,,,,,,,,10,2.235,0.346354167,-0.415364583,1,0,0,next_trial_button,0,35,35,45,1,landscape,invisiblesun,yesclouds,5,"749.6251874062968,500",
,,,,,,,gr,gr,gr,f,18,,2021-08-31_17h23.50.897,online_experiment,2021.1.4,Win32,59.9880024,FALSE,,"Mozilla/5.0 (Windows NT 10.0; Win64; x64) AppleWebKit/537.36 (KHTML, like Gecko) Chrome/92.0.4515.159 Safari/537.36",1366,625,1366,768,,,,,,,,10,1.9025,0.4375,-0.37890625,1,0,0,next_trial_button,0,36,36,38,1,landscape,visiblesun,noclouds,4,"733.3333333333333,500",
,,,,,,,gr,gr,gr,f,18,,2021-08-31_17h23.50.897,online_experiment,2021.1.4,Win32,59.9880024,FALSE,,"Mozilla/5.0 (Windows NT 10.0; Win64; x64) AppleWebKit/537.36 (KHTML, like Gecko) Chrome/92.0.4515.159 Safari/537.36",1366,625,1366,768,,,,,,,,10,8.1866,0.40625,-0.389322917,1,0,0,next_trial_button,0,37,37,24,1,beach,invisiblesun,noclouds,3,"750.089190153407,500",
,,,,,,,gr,gr,gr,f,18,,2021-08-31_17h23.50.897,online_experiment,2021.1.4,Win32,59.9880024,FALSE,,"Mozilla/5.0 (Windows NT 10.0; Win64; x64) AppleWebKit/537.36 (KHTML, like Gecko) Chrome/92.0.4515.159 Safari/537.36",1366,625,1366,768,,,,,,,,8,6.1956,0.34375,-0.408854167,1,0,0,next_trial_button,0,38,38,39,1,landscape,visiblesun,yesclouds,4,"749.7656982193065,500",
,,,,,,,gr,gr,gr,f,18,,2021-08-31_17h23.50.897,online_experiment,2021.1.4,Win32,59.9880024,FALSE,,"Mozilla/5.0 (Windows NT 10.0; Win64; x64) AppleWebKit/537.36 (KHTML, like Gecko) Chrome/92.0.4515.159 Safari/537.36",1366,625,1366,768,,,,,,,,9,6.9543,0.361979167,-0.444010417,1,0,0,next_trial_button,0,39,39,63,1,landscape,visiblesun,yesclouds,7,"331.94444444444446,500",
,,,,,,,gr,gr,gr,f,18,,2021-08-31_17h23.50.897,online_experiment,2021.1.4,Win32,59.9880024,FALSE,,"Mozilla/5.0 (Windows NT 10.0; Win64; x64) AppleWebKit/537.36 (KHTML, like Gecko) Chrome/92.0.4515.159 Safari/537.36",1366,625,1366,768,,,,,,,,8,3.2008,0.34375,-0.41796875,1,0,0,next_trial_button,0,40,40,34,1,beach,visiblesun,noclouds,4,"749.6251874062968,500",
,,,,,,,gr,gr,gr,f,18,,2021-08-31_17h23.50.897,online_experiment,2021.1.4,Win32,59.9880024,FALSE,,"Mozilla/5.0 (Windows NT 10.0; Win64; x64) AppleWebKit/537.36 (KHTML, like Gecko) Chrome/92.0.4515.159 Safari/537.36",1366,625,1366,768,,,,,,,,10,3.6542,0.37890625,-0.41015625,1,0,0,next_trial_button,0,41,41,11,1,beach,visiblesun,yesclouds,1,"989.8132427843803,500",
,,,,,,,gr,gr,gr,f,18,,2021-08-31_17h23.50.897,online_experiment,2021.1.4,Win32,59.9880024,FALSE,,"Mozilla/5.0 (Windows NT 10.0; Win64; x64) AppleWebKit/537.36 (KHTML, like Gecko) Chrome/92.0.4515.159 Safari/537.36",1366,625,1366,768,,,,,,,,6,9.7549,0.360677083,-0.4140625,1,0,0,next_trial_button,0,42,42,60,1,landscape,invisiblesun,noclouds,7,"666.7268134247564,500",
,,,,,,,gr,gr,gr,f,18,,2021-08-31_17h23.50.897,online_experiment,2021.1.4,Win32,59.9880024,FALSE,,"Mozilla/5.0 (Windows NT 10.0; Win64; x64) AppleWebKit/537.36 (KHTML, like Gecko) Chrome/92.0.4515.159 Safari/537.36",1366,625,1366,768,,,,,,,,6,2.4684,0.3828125,-0.44921875,1,0,0,next_trial_button,0,43,43,62,1,landscape,visiblesun,noclouds,7,"417.42389822807814,500",
,,,,,,,gr,gr,gr,f,18,,2021-08-31_17h23.50.897,online_experiment,2021.1.4,Win32,59.9880024,FALSE,,"Mozilla/5.0 (Windows NT 10.0; Win64; x64) AppleWebKit/537.36 (KHTML, like Gecko) Chrome/92.0.4515.159 Safari/537.36",1366,625,1366,768,,,,,,,,7,4.0016,0.368489583,-0.427083333,1,0,0,next_trial_button,0,44,44,32,1,beach,invisiblesun,noclouds,4,"750,500",
,,,,,,,gr,gr,gr,f,18,,2021-08-31_17h23.50.897,online_experiment,2021.1.4,Win32,59.9880024,FALSE,,"Mozilla/5.0 (Windows NT 10.0; Win64; x64) AppleWebKit/537.36 (KHTML, like Gecko) Chrome/92.0.4515.159 Safari/537.36",1366,625,1366,768,,,,,,,,10,6.1052,0.337239583,-0.403645833,1,0,0,next_trial_button,0,45,45,69,1,landscape,invisiblesun,yesclouds,8,"750,500",
,,,,,,,gr,gr,gr,f,18,,2021-08-31_17h23.50.897,online_experiment,2021.1.4,Win32,59.9880024,FALSE,,"Mozilla/5.0 (Windows NT 10.0; Win64; x64) AppleWebKit/537.36 (KHTML, like Gecko) Chrome/92.0.4515.159 Safari/537.36",1366,625,1366,768,,,,,,,,9,2.1242,0.415364583,-0.399739583,1,0,0,next_trial_button,0,46,46,46,1,landscape,visiblesun,noclouds,5,"750,500",
,,,,,,,gr,gr,gr,f,18,,2021-08-31_17h23.50.897,online_experiment,2021.1.4,Win32,59.9880024,FALSE,,"Mozilla/5.0 (Windows NT 10.0; Win64; x64) AppleWebKit/537.36 (KHTML, like Gecko) Chrome/92.0.4515.159 Safari/537.36",1366,625,1366,768,,,,,,,,5,2.804,0.377604167,-0.41015625,1,0,0,next_trial_button,0,47,47,78,1,landscape,visiblesun,noclouds,9,"666.6666666666666,500",
,,,,,,,gr,gr,gr,f,18,,2021-08-31_17h23.50.897,online_experiment,2021.1.4,Win32,59.9880024,FALSE,,"Mozilla/5.0 (Windows NT 10.0; Win64; x64) AppleWebKit/537.36 (KHTML, like Gecko) Chrome/92.0.4515.159 Safari/537.36",1366,625,1366,768,,,,,,,,10,4.1831,0.3671875,-0.395833333,1,0,0,next_trial_button,0,48,48,1,1,beach,invisiblesun,yesclouds,0,"666.6666666666666,500",
,,,,,,,gr,gr,gr,f,18,,2021-08-31_17h23.50.897,online_experiment,2021.1.4,Win32,59.9880024,FALSE,,"Mozilla/5.0 (Windows NT 10.0; Win64; x64) AppleWebKit/537.36 (KHTML, like Gecko) Chrome/92.0.4515.159 Safari/537.36",1366,625,1366,768,,,,,,,,10,2.0363,0.338541667,-0.403645833,1,0,0,next_trial_button,0,49,49,29,1,landscape,invisiblesun,yesclouds,3,"749.8660953401178,500",
,,,,,,,gr,gr,gr,f,18,,2021-08-31_17h23.50.897,online_experiment,2021.1.4,Win32,59.9880024,FALSE,,"Mozilla/5.0 (Windows NT 10.0; Win64; x64) AppleWebKit/537.36 (KHTML, like Gecko) Chrome/92.0.4515.159 Safari/537.36",1366,625,1366,768,,,,,,,,10,3.1517,0.328125,-0.397135417,1,0,0,next_trial_button,0,50,50,61,1,landscape,invisiblesun,yesclouds,7,"500,500",
,,,,,,,gr,gr,gr,f,18,,2021-08-31_17h23.50.897,online_experiment,2021.1.4,Win32,59.9880024,FALSE,,"Mozilla/5.0 (Windows NT 10.0; Win64; x64) AppleWebKit/537.36 (KHTML, like Gecko) Chrome/92.0.4515.159 Safari/537.36",1366,625,1366,768,,,,,,,,9,4.3243,0.345052083,-0.3984375,1,0,0,next_trial_button,0,51,51,15,1,landscape,visiblesun,yesclouds,1,"333.3333333333333,500",
,,,,,,,gr,gr,gr,f,18,,2021-08-31_17h23.50.897,online_experiment,2021.1.4,Win32,59.9880024,FALSE,,"Mozilla/5.0 (Windows NT 10.0; Win64; x64) AppleWebKit/537.36 (KHTML, like Gecko) Chrome/92.0.4515.159 Safari/537.36",1366,625,1366,768,,,,,,,,10,2.1665,0.350260417,-0.411458333,1,0,0,next_trial_button,0,52,52,4,1,landscape,invisiblesun,noclouds,0,"1276.9171185127807,500",
,,,,,,,gr,gr,gr,f,18,,2021-08-31_17h23.50.897,online_experiment,2021.1.4,Win32,59.9880024,FALSE,,"Mozilla/5.0 (Windows NT 10.0; Win64; x64) AppleWebKit/537.36 (KHTML, like Gecko) Chrome/92.0.4515.159 Safari/537.36",1366,625,1366,768,,,,,,,,10,2.1942,0.385416667,-0.41796875,1,0,0,next_trial_button,0,53,53,41,1,beach,invisiblesun,yesclouds,5,"1248.4394506866417,500",
,,,,,,,gr,gr,gr,f,18,,2021-08-31_17h23.50.897,online_experiment,2021.1.4,Win32,59.9880024,FALSE,,"Mozilla/5.0 (Windows NT 10.0; Win64; x64) AppleWebKit/537.36 (KHTML, like Gecko) Chrome/92.0.4515.159 Safari/537.36",1366,625,1366,768,,,,,,,,6,2.4197,0.3984375,-0.37890625,1,0,0,next_trial_button,0,54,54,23,1,landscape,visiblesun,yesclouds,2,"767.97829036635,500",
,,,,,,,gr,gr,gr,f,18,,2021-08-31_17h23.50.897,online_experiment,2021.1.4,Win32,59.9880024,FALSE,,"Mozilla/5.0 (Windows NT 10.0; Win64; x64) AppleWebKit/537.36 (KHTML, like Gecko) Chrome/92.0.4515.159 Safari/537.36",1366,625,1366,768,,,,,,,,10,10.2187,0.3359375,-0.432291667,1,0,0,next_trial_button,0,55,55,16,1,beach,invisiblesun,noclouds,2,"752.8089887640449,500",
,,,,,,,gr,gr,gr,f,18,,2021-08-31_17h23.50.897,online_experiment,2021.1.4,Win32,59.9880024,FALSE,,"Mozilla/5.0 (Windows NT 10.0; Win64; x64) AppleWebKit/537.36 (KHTML, like Gecko) Chrome/92.0.4515.159 Safari/537.36",1366,625,1366,768,,,,,,,,10,1.9109,0.3828125,-0.408854167,1,0,0,next_trial_button,0,56,56,33,1,beach,invisiblesun,yesclouds,4,"751.5473032714411,500",
,,,,,,,gr,gr,gr,f,18,,2021-08-31_17h23.50.897,online_experiment,2021.1.4,Win32,59.9880024,FALSE,,"Mozilla/5.0 (Windows NT 10.0; Win64; x64) AppleWebKit/537.36 (KHTML, like Gecko) Chrome/92.0.4515.159 Safari/537.36",1366,625,1366,768,,,,,,,,8,4.7393,0.388020833,-0.395833333,1,0,0,next_trial_button,0,57,57,27,1,beach,visiblesun,yesclouds,3,"752.8089887640449,500",
,,,,,,,gr,gr,gr,f,18,,2021-08-31_17h23.50.897,online_experiment,2021.1.4,Win32,59.9880024,FALSE,,"Mozilla/5.0 (Windows NT 10.0; Win64; x64) AppleWebKit/537.36 (KHTML, like Gecko) Chrome/92.0.4515.159 Safari/537.36",1366,625,1366,768,,,,,,,,9,4.1529,0.408854167,-0.41015625,1,0,0,next_trial_button,0,58,58,42,1,beach,visiblesun,noclouds,5,"834.4594594594595,500",
,,,,,,,gr,gr,gr,f,18,,2021-08-31_17h23.50.897,online_experiment,2021.1.4,Win32,59.9880024,FALSE,,"Mozilla/5.0 (Windows NT 10.0; Win64; x64) AppleWebKit/537.36 (KHTML, like Gecko) Chrome/92.0.4515.159 Safari/537.36",1366,625,1366,768,,,,,,,,9,3.6126,0.4140625,-0.421875,1,0,0,next_trial_button,0,59,59,57,1,beach,invisiblesun,yesclouds,7,"749.707488299532,500",
,,,,,,,gr,gr,gr,f,18,,2021-08-31_17h23.50.897,online_experiment,2021.1.4,Win32,59.9880024,FALSE,,"Mozilla/5.0 (Windows NT 10.0; Win64; x64) AppleWebKit/537.36 (KHTML, like Gecko) Chrome/92.0.4515.159 Safari/537.36",1366,625,1366,768,,,,,,,,9,5.705,0.423177083,-0.403645833,1,0,0,next_trial_button,0,60,60,55,1,landscape,visiblesun,yesclouds,6,"749.8819083608881,500",
,,,,,,,gr,gr,gr,f,18,,2021-08-31_17h23.50.897,online_experiment,2021.1.4,Win32,59.9880024,FALSE,,"Mozilla/5.0 (Windows NT 10.0; Win64; x64) AppleWebKit/537.36 (KHTML, like Gecko) Chrome/92.0.4515.159 Safari/537.36",1366,625,1366,768,,,,,,,,8,7.5694,0.408854167,-0.420572917,1,0,0,next_trial_button,0,61,61,67,1,beach,visiblesun,yesclouds,8,"748.1481481481482,500",
,,,,,,,gr,gr,gr,f,18,,2021-08-31_17h23.50.897,online_experiment,2021.1.4,Win32,59.9880024,FALSE,,"Mozilla/5.0 (Windows NT 10.0; Win64; x64) AppleWebKit/537.36 (KHTML, like Gecko) Chrome/92.0.4515.159 Safari/537.36",1366,625,1366,768,,,,,,,,6,3.6432,0.322916667,-0.42578125,1,0,0,next_trial_button,0,62,62,5,1,landscape,invisiblesun,yesclouds,0,"750.4690431519699,500",
,,,,,,,gr,gr,gr,f,18,,2021-08-31_17h23.50.897,online_experiment,2021.1.4,Win32,59.9880024,FALSE,,"Mozilla/5.0 (Windows NT 10.0; Win64; x64) AppleWebKit/537.36 (KHTML, like Gecko) Chrome/92.0.4515.159 Safari/537.36",1366,625,1366,768,,,,,,,,8,3.2323,0.3671875,-0.430989583,1,0,0,next_trial_button,0,63,63,47,1,landscape,visiblesun,yesclouds,5,"666.6666666666666,500",
,,,,,,,gr,gr,gr,f,18,,2021-08-31_17h23.50.897,online_experiment,2021.1.4,Win32,59.9880024,FALSE,,"Mozilla/5.0 (Windows NT 10.0; Win64; x64) AppleWebKit/537.36 (KHTML, like Gecko) Chrome/92.0.4515.159 Safari/537.36",1366,625,1366,768,,,,,,,,8,6.5999,0.389322917,-0.415364583,1,0,0,next_trial_button,0,64,64,2,1,beach,visiblesun,noclouds,0,"375,500",
,,,,,,,gr,gr,gr,f,18,,2021-08-31_17h23.50.897,online_experiment,2021.1.4,Win32,59.9880024,FALSE,,"Mozilla/5.0 (Windows NT 10.0; Win64; x64) AppleWebKit/537.36 (KHTML, like Gecko) Chrome/92.0.4515.159 Safari/537.36",1366,625,1366,768,,,,,,,,9,6.9607,0.407552083,-0.423177083,1,0,0,next_trial_button,0,65,65,8,1,beach,invisiblesun,noclouds,1,"1215.1898734177216,500",
,,,,,,,gr,gr,gr,f,18,,2021-08-31_17h23.50.897,online_experiment,2021.1.4,Win32,59.9880024,FALSE,,"Mozilla/5.0 (Windows NT 10.0; Win64; x64) AppleWebKit/537.36 (KHTML, like Gecko) Chrome/92.0.4515.159 Safari/537.36",1366,625,1366,768,,,,,,,,9,3.1881,0.365885417,-0.403645833,1,0,0,next_trial_button,0,66,66,65,1,beach,invisiblesun,yesclouds,8,"750,500",
,,,,,,,gr,gr,gr,f,18,,2021-08-31_17h23.50.897,online_experiment,2021.1.4,Win32,59.9880024,FALSE,,"Mozilla/5.0 (Windows NT 10.0; Win64; x64) AppleWebKit/537.36 (KHTML, like Gecko) Chrome/92.0.4515.159 Safari/537.36",1366,625,1366,768,,,,,,,,5,5.3156,0.341145833,-0.42578125,1,0,0,next_trial_button,0,67,67,68,1,landscape,invisiblesun,noclouds,8,"666.6666666666666,500",
,,,,,,,gr,gr,gr,f,18,,2021-08-31_17h23.50.897,online_experiment,2021.1.4,Win32,59.9880024,FALSE,,"Mozilla/5.0 (Windows NT 10.0; Win64; x64) AppleWebKit/537.36 (KHTML, like Gecko) Chrome/92.0.4515.159 Safari/537.36",1366,625,1366,768,,,,,,,,8,5.3973,0.333333333,-0.408854167,1,0,0,next_trial_button,0,68,68,75,1,beach,visiblesun,yesclouds,9,"1029.6010296010297,500",
,,,,,,,gr,gr,gr,f,18,,2021-08-31_17h23.50.897,online_experiment,2021.1.4,Win32,59.9880024,FALSE,,"Mozilla/5.0 (Windows NT 10.0; Win64; x64) AppleWebKit/537.36 (KHTML, like Gecko) Chrome/92.0.4515.159 Safari/537.36",1366,625,1366,768,,,,,,,,7,4.3697,0.395833333,-0.408854167,1,0,0,next_trial_button,0,69,69,50,1,beach,visiblesun,noclouds,6,"666.6666666666666,500",
,,,,,,,gr,gr,gr,f,18,,2021-08-31_17h23.50.897,online_experiment,2021.1.4,Win32,59.9880024,FALSE,,"Mozilla/5.0 (Windows NT 10.0; Win64; x64) AppleWebKit/537.36 (KHTML, like Gecko) Chrome/92.0.4515.159 Safari/537.36",1366,625,1366,768,,,,,,,,9,18.6183,0.407552083,-0.415364583,1,0,0,next_trial_button,0,70,70,21,1,landscape,invisiblesun,yesclouds,2,"750,500",
,,,,,,,gr,gr,gr,f,18,,2021-08-31_17h23.50.897,online_experiment,2021.1.4,Win32,59.9880024,FALSE,,"Mozilla/5.0 (Windows NT 10.0; Win64; x64) AppleWebKit/537.36 (KHTML, like Gecko) Chrome/92.0.4515.159 Safari/537.36",1366,625,1366,768,,,,,,,,7,2.4467,0.395833333,-0.393229167,1,0,0,next_trial_button,0,71,71,19,1,beach,visiblesun,yesclouds,2,"770.1393095093882,500",
,,,,,,,gr,gr,gr,f,18,,2021-08-31_17h23.50.897,online_experiment,2021.1.4,Win32,59.9880024,FALSE,,"Mozilla/5.0 (Windows NT 10.0; Win64; x64) AppleWebKit/537.36 (KHTML, like Gecko) Chrome/92.0.4515.159 Safari/537.36",1366,625,1366,768,,,,,,,,10,1.9531,0.377604167,-0.376302083,1,0,0,next_trial_button,0,72,72,6,1,landscape,visiblesun,noclouds,0,"1413.8005159071367,500",
,,,,,,,gr,gr,gr,f,18,,2021-08-31_17h23.50.897,online_experiment,2021.1.4,Win32,59.9880024,FALSE,,"Mozilla/5.0 (Windows NT 10.0; Win64; x64) AppleWebKit/537.36 (KHTML, like Gecko) Chrome/92.0.4515.159 Safari/537.36",1366,625,1366,768,,,,,,,,9,2.2373,0.36328125,-0.395833333,1,0,0,next_trial_button,0,73,73,3,1,beach,visiblesun,yesclouds,0,"1152.5122276567363,500",
,,,,,,,gr,gr,gr,f,18,,2021-08-31_17h23.50.897,online_experiment,2021.1.4,Win32,59.9880024,FALSE,,"Mozilla/5.0 (Windows NT 10.0; Win64; x64) AppleWebKit/537.36 (KHTML, like Gecko) Chrome/92.0.4515.159 Safari/537.36",1366,625,1366,768,,,,,,,,8,4.1687,0.341145833,-0.416666667,1,0,0,next_trial_button,0,74,74,58,1,beach,visiblesun,noclouds,7,"1028.5714285714284,500",
,,,,,,,gr,gr,gr,f,18,,2021-08-31_17h23.50.897,online_experiment,2021.1.4,Win32,59.9880024,FALSE,,"Mozilla/5.0 (Windows NT 10.0; Win64; x64) AppleWebKit/537.36 (KHTML, like Gecko) Chrome/92.0.4515.159 Safari/537.36",1366,625,1366,768,,,,,,,,8,3.0897,0.352864583,-0.434895833,1,0,0,next_trial_button,0,75,75,17,1,beach,invisiblesun,yesclouds,2,"684.8635235732011,500",
,,,,,,,gr,gr,gr,f,18,,2021-08-31_17h23.50.897,online_experiment,2021.1.4,Win32,59.9880024,FALSE,,"Mozilla/5.0 (Windows NT 10.0; Win64; x64) AppleWebKit/537.36 (KHTML, like Gecko) Chrome/92.0.4515.159 Safari/537.36",1366,625,1366,768,,,,,,,,7,32.7325,0.34375,-0.40234375,1,0,0,next_trial_button,0,76,76,18,1,beach,visiblesun,noclouds,2,"666.6666666666666,500",
,,,,,,,gr,gr,gr,f,18,,2021-08-31_17h23.50.897,online_experiment,2021.1.4,Win32,59.9880024,FALSE,,"Mozilla/5.0 (Windows NT 10.0; Win64; x64) AppleWebKit/537.36 (KHTML, like Gecko) Chrome/92.0.4515.159 Safari/537.36",1366,625,1366,768,,,,,,,,6,2.4072,0.42578125,-0.404947917,1,0,0,next_trial_button,0,77,77,73,1,beach,invisiblesun,yesclouds,9,"1028.5714285714284,500",
,,,,,,,gr,gr,gr,f,18,,2021-08-31_17h23.50.897,online_experiment,2021.1.4,Win32,59.9880024,FALSE,,"Mozilla/5.0 (Windows NT 10.0; Win64; x64) AppleWebKit/537.36 (KHTML, like Gecko) Chrome/92.0.4515.159 Safari/537.36",1366,625,1366,768,,,,,,,,7,57.5201,0.389322917,-0.430989583,1,0,0,next_trial_button,0,78,78,40,1,beach,invisiblesun,noclouds,5,"1028.5714285714284,500",
,,,,,,,gr,gr,gr,f,18,,2021-08-31_17h23.50.897,online_experiment,2021.1.4,Win32,59.9880024,FALSE,,"Mozilla/5.0 (Windows NT 10.0; Win64; x64) AppleWebKit/537.36 (KHTML, like Gecko) Chrome/92.0.4515.159 Safari/537.36",1366,625,1366,768,,,,,,,,7,2.3594,0.377604167,-0.428385417,1,0,0,next_trial_button,0,79,79,64,1,beach,invisiblesun,noclouds,8,"1028.5714285714284,500",
,,,,,,,gr,gr,gr,f,18,,2021-08-31_17h23.50.897,online_experiment,2021.1.4,Win32,59.9880024,FALSE,,"Mozilla/5.0 (Windows NT 10.0; Win64; x64) AppleWebKit/537.36 (KHTML, like Gecko) Chrome/92.0.4515.159 Safari/537.36",1366,625,1366,768,,,,,,,,,,,,,,,,,,,,,,,,,"1028.5714285714284,500",664.7867
