language_mouse.x,language_mouse.y,language_mouse.leftButton,language_mouse.midButton,language_mouse.rightButton,language_mouse.time,language_mouse.clicked_name,nationality,mother_tongue,homeland,gender,age,email,date,expName,psychopyVersion,OS,frameRate,cancel_experiment,cancel_reasons,client_agent_information,windowWidth,windowHeight,xRes,yRes,start_exp_mouse.x,start_exp_mouse.y,start_exp_mouse.leftButton,start_exp_mouse.midButton,start_exp_mouse.rightButton,start_exp_mouse.time,start_exp_mouse.clicked_name,rating_slider.response,rating_slider.rt,next_trial_mouse.x,next_trial_mouse.y,next_trial_mouse.leftButton,next_trial_mouse.midButton,next_trial_mouse.rightButton,next_trial_mouse.clicked_name,trials.thisRepN,trials.thisTrialN,trials.thisN,trials.thisIndex,trials.ran,environment,sunVisibility,cloudVisibility,imageId,imgSize,globalClockTime
0.295572917,-0.251302083,1,0,0,2.8646,gr_flag,gr,gr,gr,f,23,,2021-08-31_17h37.02.999,online_experiment,2021.1.4,Win32,60.0132029,FALSE,,"Mozilla/5.0 (Windows NT 10.0; Win64; x64) AppleWebKit/537.36 (KHTML, like Gecko) Chrome/92.0.4515.159 Safari/537.36",1366,625,1366,768,,,,,,,,,,,,,,,,,,,,,,,,,,
,,,,,,,gr,gr,gr,f,23,,2021-08-31_17h37.02.999,online_experiment,2021.1.4,Win32,60.0132029,FALSE,,"Mozilla/5.0 (Windows NT 10.0; Win64; x64) AppleWebKit/537.36 (KHTML, like Gecko) Chrome/92.0.4515.159 Safari/537.36",1366,625,1366,768,0.024739583,-0.4140625,1,0,0,55.4834,cont_gr,2,7.9731,0.376302083,-0.411458333,1,0,0,next_trial_button,0,0,0,76,1,landscape,invisiblesun,noclouds,9,"1056.6037735849056,500",
,,,,,,,gr,gr,gr,f,23,,2021-08-31_17h37.02.999,online_experiment,2021.1.4,Win32,60.0132029,FALSE,,"Mozilla/5.0 (Windows NT 10.0; Win64; x64) AppleWebKit/537.36 (KHTML, like Gecko) Chrome/92.0.4515.159 Safari/537.36",1366,625,1366,768,,,,,,,,7,2.3182,0.432291667,-0.416666667,1,0,0,next_trial_button,0,1,1,51,1,beach,visiblesun,yesclouds,6,"657.1279916753382,500",
,,,,,,,gr,gr,gr,f,23,,2021-08-31_17h37.02.999,online_experiment,2021.1.4,Win32,60.0132029,FALSE,,"Mozilla/5.0 (Windows NT 10.0; Win64; x64) AppleWebKit/537.36 (KHTML, like Gecko) Chrome/92.0.4515.159 Safari/537.36",1366,625,1366,768,,,,,,,,9,2.4397,0.41015625,-0.415364583,1,0,0,next_trial_button,0,2,2,1,1,beach,invisiblesun,yesclouds,0,"666.6666666666666,500",
,,,,,,,gr,gr,gr,f,23,,2021-08-31_17h37.02.999,online_experiment,2021.1.4,Win32,60.0132029,FALSE,,"Mozilla/5.0 (Windows NT 10.0; Win64; x64) AppleWebKit/537.36 (KHTML, like Gecko) Chrome/92.0.4515.159 Safari/537.36",1366,625,1366,768,,,,,,,,8,3.9387,0.37109375,-0.43359375,1,0,0,next_trial_button,0,3,3,17,1,beach,invisiblesun,yesclouds,2,"684.8635235732011,500",
,,,,,,,gr,gr,gr,f,23,,2021-08-31_17h37.02.999,online_experiment,2021.1.4,Win32,60.0132029,FALSE,,"Mozilla/5.0 (Windows NT 10.0; Win64; x64) AppleWebKit/537.36 (KHTML, like Gecko) Chrome/92.0.4515.159 Safari/537.36",1366,625,1366,768,,,,,,,,6,4.7493,0.38671875,-0.403645833,1,0,0,next_trial_button,0,4,4,43,1,beach,visiblesun,yesclouds,5,"750,500",
,,,,,,,gr,gr,gr,f,23,,2021-08-31_17h37.02.999,online_experiment,2021.1.4,Win32,60.0132029,FALSE,,"Mozilla/5.0 (Windows NT 10.0; Win64; x64) AppleWebKit/537.36 (KHTML, like Gecko) Chrome/92.0.4515.159 Safari/537.36",1366,625,1366,768,,,,,,,,7,3.202,0.365885417,-0.436197917,1,0,0,next_trial_button,0,5,5,26,1,beach,visiblesun,noclouds,3,"888.8888888888888,500",
,,,,,,,gr,gr,gr,f,23,,2021-08-31_17h37.02.999,online_experiment,2021.1.4,Win32,60.0132029,FALSE,,"Mozilla/5.0 (Windows NT 10.0; Win64; x64) AppleWebKit/537.36 (KHTML, like Gecko) Chrome/92.0.4515.159 Safari/537.36",1366,625,1366,768,,,,,,,,5,5.6198,0.44140625,-0.408854167,1,0,0,next_trial_button,0,6,6,66,1,beach,visiblesun,noclouds,8,"1028.5714285714284,500",
,,,,,,,gr,gr,gr,f,23,,2021-08-31_17h37.02.999,online_experiment,2021.1.4,Win32,60.0132029,FALSE,,"Mozilla/5.0 (Windows NT 10.0; Win64; x64) AppleWebKit/537.36 (KHTML, like Gecko) Chrome/92.0.4515.159 Safari/537.36",1366,625,1366,768,,,,,,,,6,3.1697,0.322916667,-0.427083333,1,0,0,next_trial_button,0,7,7,67,1,beach,visiblesun,yesclouds,8,"748.1481481481482,500",
,,,,,,,gr,gr,gr,f,23,,2021-08-31_17h37.02.999,online_experiment,2021.1.4,Win32,60.0132029,FALSE,,"Mozilla/5.0 (Windows NT 10.0; Win64; x64) AppleWebKit/537.36 (KHTML, like Gecko) Chrome/92.0.4515.159 Safari/537.36",1366,625,1366,768,,,,,,,,1,4.6964,0.3515625,-0.404947917,1,0,0,next_trial_button,0,8,8,32,1,beach,invisiblesun,noclouds,4,"750,500",
,,,,,,,gr,gr,gr,f,23,,2021-08-31_17h37.02.999,online_experiment,2021.1.4,Win32,60.0132029,FALSE,,"Mozilla/5.0 (Windows NT 10.0; Win64; x64) AppleWebKit/537.36 (KHTML, like Gecko) Chrome/92.0.4515.159 Safari/537.36",1366,625,1366,768,,,,,,,,1,7.0977,0.44921875,-0.420572917,1,0,0,next_trial_button,0,9,9,13,1,landscape,invisiblesun,yesclouds,1,"783.1192660550458,500",
,,,,,,,gr,gr,gr,f,23,,2021-08-31_17h37.02.999,online_experiment,2021.1.4,Win32,60.0132029,FALSE,,"Mozilla/5.0 (Windows NT 10.0; Win64; x64) AppleWebKit/537.36 (KHTML, like Gecko) Chrome/92.0.4515.159 Safari/537.36",1366,625,1366,768,,,,,,,,7,4.4477,0.39453125,-0.438802083,1,0,0,next_trial_button,0,10,10,20,1,landscape,invisiblesun,noclouds,2,"755.192878338279,500",
,,,,,,,gr,gr,gr,f,23,,2021-08-31_17h37.02.999,online_experiment,2021.1.4,Win32,60.0132029,FALSE,,"Mozilla/5.0 (Windows NT 10.0; Win64; x64) AppleWebKit/537.36 (KHTML, like Gecko) Chrome/92.0.4515.159 Safari/537.36",1366,625,1366,768,,,,,,,,1,2.453,0.404947917,-0.411458333,1,0,0,next_trial_button,0,11,11,12,1,landscape,invisiblesun,noclouds,1,"666.6666666666666,500",
,,,,,,,gr,gr,gr,f,23,,2021-08-31_17h37.02.999,online_experiment,2021.1.4,Win32,60.0132029,FALSE,,"Mozilla/5.0 (Windows NT 10.0; Win64; x64) AppleWebKit/537.36 (KHTML, like Gecko) Chrome/92.0.4515.159 Safari/537.36",1366,625,1366,768,,,,,,,,2,3.3847,0.46875,-0.416666667,1,0,0,next_trial_button,0,12,12,28,1,landscape,invisiblesun,noclouds,3,"888.8888888888888,500",
,,,,,,,gr,gr,gr,f,23,,2021-08-31_17h37.02.999,online_experiment,2021.1.4,Win32,60.0132029,FALSE,,"Mozilla/5.0 (Windows NT 10.0; Win64; x64) AppleWebKit/537.36 (KHTML, like Gecko) Chrome/92.0.4515.159 Safari/537.36",1366,625,1366,768,,,,,,,,9,3.5067,0.411458333,-0.416666667,1,0,0,next_trial_button,0,13,13,37,1,landscape,invisiblesun,yesclouds,4,"669.4214876033058,500",
,,,,,,,gr,gr,gr,f,23,,2021-08-31_17h37.02.999,online_experiment,2021.1.4,Win32,60.0132029,FALSE,,"Mozilla/5.0 (Windows NT 10.0; Win64; x64) AppleWebKit/537.36 (KHTML, like Gecko) Chrome/92.0.4515.159 Safari/537.36",1366,625,1366,768,,,,,,,,2,2.9993,0.333333333,-0.421875,1,0,0,next_trial_button,0,14,14,62,1,landscape,visiblesun,noclouds,7,"417.42389822807814,500",
,,,,,,,gr,gr,gr,f,23,,2021-08-31_17h37.02.999,online_experiment,2021.1.4,Win32,60.0132029,FALSE,,"Mozilla/5.0 (Windows NT 10.0; Win64; x64) AppleWebKit/537.36 (KHTML, like Gecko) Chrome/92.0.4515.159 Safari/537.36",1366,625,1366,768,,,,,,,,2,3.1108,0.4453125,-0.41796875,1,0,0,next_trial_button,0,15,15,21,1,landscape,invisiblesun,yesclouds,2,"750,500",
,,,,,,,gr,gr,gr,f,23,,2021-08-31_17h37.02.999,online_experiment,2021.1.4,Win32,60.0132029,FALSE,,"Mozilla/5.0 (Windows NT 10.0; Win64; x64) AppleWebKit/537.36 (KHTML, like Gecko) Chrome/92.0.4515.159 Safari/537.36",1366,625,1366,768,,,,,,,,5,3.2685,0.373697917,-0.41015625,1,0,0,next_trial_button,0,16,16,18,1,beach,visiblesun,noclouds,2,"666.6666666666666,500",
,,,,,,,gr,gr,gr,f,23,,2021-08-31_17h37.02.999,online_experiment,2021.1.4,Win32,60.0132029,FALSE,,"Mozilla/5.0 (Windows NT 10.0; Win64; x64) AppleWebKit/537.36 (KHTML, like Gecko) Chrome/92.0.4515.159 Safari/537.36",1366,625,1366,768,,,,,,,,8,3.622,0.341145833,-0.404947917,1,0,0,next_trial_button,0,17,17,24,1,beach,invisiblesun,noclouds,3,"750.089190153407,500",
,,,,,,,gr,gr,gr,f,23,,2021-08-31_17h37.02.999,online_experiment,2021.1.4,Win32,60.0132029,FALSE,,"Mozilla/5.0 (Windows NT 10.0; Win64; x64) AppleWebKit/537.36 (KHTML, like Gecko) Chrome/92.0.4515.159 Safari/537.36",1366,625,1366,768,,,,,,,,7,3.9085,0.35546875,-0.411458333,1,0,0,next_trial_button,0,18,18,53,1,landscape,invisiblesun,yesclouds,6,"750.0695023630803,500",
,,,,,,,gr,gr,gr,f,23,,2021-08-31_17h37.02.999,online_experiment,2021.1.4,Win32,60.0132029,FALSE,,"Mozilla/5.0 (Windows NT 10.0; Win64; x64) AppleWebKit/537.36 (KHTML, like Gecko) Chrome/92.0.4515.159 Safari/537.36",1366,625,1366,768,,,,,,,,6,2.6161,0.486979167,-0.42578125,1,0,0,next_trial_button,0,19,19,73,1,beach,invisiblesun,yesclouds,9,"1028.5714285714284,500",
,,,,,,,gr,gr,gr,f,23,,2021-08-31_17h37.02.999,online_experiment,2021.1.4,Win32,60.0132029,FALSE,,"Mozilla/5.0 (Windows NT 10.0; Win64; x64) AppleWebKit/537.36 (KHTML, like Gecko) Chrome/92.0.4515.159 Safari/537.36",1366,625,1366,768,,,,,,,,1,2.487,0.41015625,-0.40234375,1,0,0,next_trial_button,0,20,20,44,1,landscape,invisiblesun,noclouds,5,"666.6666666666666,500",
,,,,,,,gr,gr,gr,f,23,,2021-08-31_17h37.02.999,online_experiment,2021.1.4,Win32,60.0132029,FALSE,,"Mozilla/5.0 (Windows NT 10.0; Win64; x64) AppleWebKit/537.36 (KHTML, like Gecko) Chrome/92.0.4515.159 Safari/537.36",1366,625,1366,768,,,,,,,,5,6.1991,0.389322917,-0.3984375,1,0,0,next_trial_button,0,21,21,74,1,beach,visiblesun,noclouds,9,"1028.5714285714284,500",
,,,,,,,gr,gr,gr,f,23,,2021-08-31_17h37.02.999,online_experiment,2021.1.4,Win32,60.0132029,FALSE,,"Mozilla/5.0 (Windows NT 10.0; Win64; x64) AppleWebKit/537.36 (KHTML, like Gecko) Chrome/92.0.4515.159 Safari/537.36",1366,625,1366,768,,,,,,,,3,4.8977,0.354166667,-0.412760417,1,0,0,next_trial_button,0,22,22,79,1,landscape,visiblesun,yesclouds,9,"1028.5714285714284,500",
,,,,,,,gr,gr,gr,f,23,,2021-08-31_17h37.02.999,online_experiment,2021.1.4,Win32,60.0132029,FALSE,,"Mozilla/5.0 (Windows NT 10.0; Win64; x64) AppleWebKit/537.36 (KHTML, like Gecko) Chrome/92.0.4515.159 Safari/537.36",1366,625,1366,768,,,,,,,,7,7.9771,0.322916667,-0.4296875,1,0,0,next_trial_button,0,23,23,33,1,beach,invisiblesun,yesclouds,4,"751.5473032714411,500",
,,,,,,,gr,gr,gr,f,23,,2021-08-31_17h37.02.999,online_experiment,2021.1.4,Win32,60.0132029,FALSE,,"Mozilla/5.0 (Windows NT 10.0; Win64; x64) AppleWebKit/537.36 (KHTML, like Gecko) Chrome/92.0.4515.159 Safari/537.36",1366,625,1366,768,,,,,,,,5,2.8777,0.337239583,-0.38671875,1,0,0,next_trial_button,0,24,24,49,1,beach,invisiblesun,yesclouds,6,"858.4474885844749,500",
,,,,,,,gr,gr,gr,f,23,,2021-08-31_17h37.02.999,online_experiment,2021.1.4,Win32,60.0132029,FALSE,,"Mozilla/5.0 (Windows NT 10.0; Win64; x64) AppleWebKit/537.36 (KHTML, like Gecko) Chrome/92.0.4515.159 Safari/537.36",1366,625,1366,768,,,,,,,,5,2.2081,0.350260417,-0.423177083,1,0,0,next_trial_button,0,25,25,39,1,landscape,visiblesun,yesclouds,4,"749.7656982193065,500",
,,,,,,,gr,gr,gr,f,23,,2021-08-31_17h37.02.999,online_experiment,2021.1.4,Win32,60.0132029,FALSE,,"Mozilla/5.0 (Windows NT 10.0; Win64; x64) AppleWebKit/537.36 (KHTML, like Gecko) Chrome/92.0.4515.159 Safari/537.36",1366,625,1366,768,,,,,,,,5,36.1742,0.454427083,-0.420572917,1,0,0,next_trial_button,0,26,26,65,1,beach,invisiblesun,yesclouds,8,"750,500",
,,,,,,,gr,gr,gr,f,23,,2021-08-31_17h37.02.999,online_experiment,2021.1.4,Win32,60.0132029,FALSE,,"Mozilla/5.0 (Windows NT 10.0; Win64; x64) AppleWebKit/537.36 (KHTML, like Gecko) Chrome/92.0.4515.159 Safari/537.36",1366,625,1366,768,,,,,,,,3,2.5463,0.3828125,-0.427083333,1,0,0,next_trial_button,0,27,27,5,1,landscape,invisiblesun,yesclouds,0,"750.4690431519699,500",
,,,,,,,gr,gr,gr,f,23,,2021-08-31_17h37.02.999,online_experiment,2021.1.4,Win32,60.0132029,FALSE,,"Mozilla/5.0 (Windows NT 10.0; Win64; x64) AppleWebKit/537.36 (KHTML, like Gecko) Chrome/92.0.4515.159 Safari/537.36",1366,625,1366,768,,,,,,,,5,3.4849,0.388020833,-0.454427083,1,0,0,next_trial_button,0,28,28,56,1,beach,invisiblesun,noclouds,7,"1028.5714285714284,500",
,,,,,,,gr,gr,gr,f,23,,2021-08-31_17h37.02.999,online_experiment,2021.1.4,Win32,60.0132029,FALSE,,"Mozilla/5.0 (Windows NT 10.0; Win64; x64) AppleWebKit/537.36 (KHTML, like Gecko) Chrome/92.0.4515.159 Safari/537.36",1366,625,1366,768,,,,,,,,5,2.3503,0.365885417,-0.4140625,1,0,0,next_trial_button,0,29,29,46,1,landscape,visiblesun,noclouds,5,"750,500",
,,,,,,,gr,gr,gr,f,23,,2021-08-31_17h37.02.999,online_experiment,2021.1.4,Win32,60.0132029,FALSE,,"Mozilla/5.0 (Windows NT 10.0; Win64; x64) AppleWebKit/537.36 (KHTML, like Gecko) Chrome/92.0.4515.159 Safari/537.36",1366,625,1366,768,,,,,,,,4,3.2477,0.436197917,-0.403645833,1,0,0,next_trial_button,0,30,30,60,1,landscape,invisiblesun,noclouds,7,"666.7268134247564,500",
,,,,,,,gr,gr,gr,f,23,,2021-08-31_17h37.02.999,online_experiment,2021.1.4,Win32,60.0132029,FALSE,,"Mozilla/5.0 (Windows NT 10.0; Win64; x64) AppleWebKit/537.36 (KHTML, like Gecko) Chrome/92.0.4515.159 Safari/537.36",1366,625,1366,768,,,,,,,,4,3.4565,0.377604167,-0.423177083,1,0,0,next_trial_button,0,31,31,70,1,landscape,visiblesun,noclouds,8,"666.6666666666666,500",
,,,,,,,gr,gr,gr,f,23,,2021-08-31_17h37.02.999,online_experiment,2021.1.4,Win32,60.0132029,FALSE,,"Mozilla/5.0 (Windows NT 10.0; Win64; x64) AppleWebKit/537.36 (KHTML, like Gecko) Chrome/92.0.4515.159 Safari/537.36",1366,625,1366,768,,,,,,,,7,2.7099,0.467447917,-0.444010417,1,0,0,next_trial_button,0,32,32,4,1,landscape,invisiblesun,noclouds,0,"1276.9171185127807,500",
,,,,,,,gr,gr,gr,f,23,,2021-08-31_17h37.02.999,online_experiment,2021.1.4,Win32,60.0132029,FALSE,,"Mozilla/5.0 (Windows NT 10.0; Win64; x64) AppleWebKit/537.36 (KHTML, like Gecko) Chrome/92.0.4515.159 Safari/537.36",1366,625,1366,768,,,,,,,,6,3.3323,0.440104167,-0.432291667,1,0,0,next_trial_button,0,33,33,27,1,beach,visiblesun,yesclouds,3,"752.8089887640449,500",
,,,,,,,gr,gr,gr,f,23,,2021-08-31_17h37.02.999,online_experiment,2021.1.4,Win32,60.0132029,FALSE,,"Mozilla/5.0 (Windows NT 10.0; Win64; x64) AppleWebKit/537.36 (KHTML, like Gecko) Chrome/92.0.4515.159 Safari/537.36",1366,625,1366,768,,,,,,,,5,2.2815,0.33203125,-0.408854167,1,0,0,next_trial_button,0,34,34,38,1,landscape,visiblesun,noclouds,4,"733.3333333333333,500",
,,,,,,,gr,gr,gr,f,23,,2021-08-31_17h37.02.999,online_experiment,2021.1.4,Win32,60.0132029,FALSE,,"Mozilla/5.0 (Windows NT 10.0; Win64; x64) AppleWebKit/537.36 (KHTML, like Gecko) Chrome/92.0.4515.159 Safari/537.36",1366,625,1366,768,,,,,,,,4,2.4802,0.337239583,-0.4375,1,0,0,next_trial_button,0,35,35,10,1,beach,visiblesun,noclouds,1,"747.0261697065821,500",
,,,,,,,gr,gr,gr,f,23,,2021-08-31_17h37.02.999,online_experiment,2021.1.4,Win32,60.0132029,FALSE,,"Mozilla/5.0 (Windows NT 10.0; Win64; x64) AppleWebKit/537.36 (KHTML, like Gecko) Chrome/92.0.4515.159 Safari/537.36",1366,625,1366,768,,,,,,,,4,4.9717,0.388020833,-0.397135417,1,0,0,next_trial_button,0,36,36,31,1,landscape,visiblesun,yesclouds,3,"638.0622837370242,500",
,,,,,,,gr,gr,gr,f,23,,2021-08-31_17h37.02.999,online_experiment,2021.1.4,Win32,60.0132029,FALSE,,"Mozilla/5.0 (Windows NT 10.0; Win64; x64) AppleWebKit/537.36 (KHTML, like Gecko) Chrome/92.0.4515.159 Safari/537.36",1366,625,1366,768,,,,,,,,4,2.027,0.3984375,-0.42578125,1,0,0,next_trial_button,0,37,37,14,1,landscape,visiblesun,noclouds,1,"745.9919839679359,500",
,,,,,,,gr,gr,gr,f,23,,2021-08-31_17h37.02.999,online_experiment,2021.1.4,Win32,60.0132029,FALSE,,"Mozilla/5.0 (Windows NT 10.0; Win64; x64) AppleWebKit/537.36 (KHTML, like Gecko) Chrome/92.0.4515.159 Safari/537.36",1366,625,1366,768,,,,,,,,7,3.7389,0.330729167,-0.419270833,1,0,0,next_trial_button,0,38,38,3,1,beach,visiblesun,yesclouds,0,"1152.5122276567363,500",
,,,,,,,gr,gr,gr,f,23,,2021-08-31_17h37.02.999,online_experiment,2021.1.4,Win32,60.0132029,FALSE,,"Mozilla/5.0 (Windows NT 10.0; Win64; x64) AppleWebKit/537.36 (KHTML, like Gecko) Chrome/92.0.4515.159 Safari/537.36",1366,625,1366,768,,,,,,,,7,3.7491,0.40234375,-0.43359375,1,0,0,next_trial_button,0,39,39,0,1,beach,invisiblesun,noclouds,0,"750,500",
,,,,,,,gr,gr,gr,f,23,,2021-08-31_17h37.02.999,online_experiment,2021.1.4,Win32,60.0132029,FALSE,,"Mozilla/5.0 (Windows NT 10.0; Win64; x64) AppleWebKit/537.36 (KHTML, like Gecko) Chrome/92.0.4515.159 Safari/537.36",1366,625,1366,768,,,,,,,,2,3.0514,0.30859375,-0.412760417,1,0,0,next_trial_button,0,40,40,30,1,landscape,visiblesun,noclouds,3,"346.3035019455253,500",
,,,,,,,gr,gr,gr,f,23,,2021-08-31_17h37.02.999,online_experiment,2021.1.4,Win32,60.0132029,FALSE,,"Mozilla/5.0 (Windows NT 10.0; Win64; x64) AppleWebKit/537.36 (KHTML, like Gecko) Chrome/92.0.4515.159 Safari/537.36",1366,625,1366,768,,,,,,,,7,4.9232,0.341145833,-0.428385417,1,0,0,next_trial_button,0,41,41,2,1,beach,visiblesun,noclouds,0,"375,500",
,,,,,,,gr,gr,gr,f,23,,2021-08-31_17h37.02.999,online_experiment,2021.1.4,Win32,60.0132029,FALSE,,"Mozilla/5.0 (Windows NT 10.0; Win64; x64) AppleWebKit/537.36 (KHTML, like Gecko) Chrome/92.0.4515.159 Safari/537.36",1366,625,1366,768,,,,,,,,6,2.7814,0.33984375,-0.43359375,1,0,0,next_trial_button,0,42,42,8,1,beach,invisiblesun,noclouds,1,"1215.1898734177216,500",
,,,,,,,gr,gr,gr,f,23,,2021-08-31_17h37.02.999,online_experiment,2021.1.4,Win32,60.0132029,FALSE,,"Mozilla/5.0 (Windows NT 10.0; Win64; x64) AppleWebKit/537.36 (KHTML, like Gecko) Chrome/92.0.4515.159 Safari/537.36",1366,625,1366,768,,,,,,,,9,2.4995,0.388020833,-0.4140625,1,0,0,next_trial_button,0,43,43,11,1,beach,visiblesun,yesclouds,1,"989.8132427843803,500",
,,,,,,,gr,gr,gr,f,23,,2021-08-31_17h37.02.999,online_experiment,2021.1.4,Win32,60.0132029,FALSE,,"Mozilla/5.0 (Windows NT 10.0; Win64; x64) AppleWebKit/537.36 (KHTML, like Gecko) Chrome/92.0.4515.159 Safari/537.36",1366,625,1366,768,,,,,,,,7,3.2805,0.411458333,-0.420572917,1,0,0,next_trial_button,0,44,44,63,1,landscape,visiblesun,yesclouds,7,"331.94444444444446,500",
,,,,,,,gr,gr,gr,f,23,,2021-08-31_17h37.02.999,online_experiment,2021.1.4,Win32,60.0132029,FALSE,,"Mozilla/5.0 (Windows NT 10.0; Win64; x64) AppleWebKit/537.36 (KHTML, like Gecko) Chrome/92.0.4515.159 Safari/537.36",1366,625,1366,768,,,,,,,,6,3.4551,0.341145833,-0.421875,1,0,0,next_trial_button,0,45,45,59,1,beach,visiblesun,yesclouds,7,"888.9689978370584,500",
,,,,,,,gr,gr,gr,f,23,,2021-08-31_17h37.02.999,online_experiment,2021.1.4,Win32,60.0132029,FALSE,,"Mozilla/5.0 (Windows NT 10.0; Win64; x64) AppleWebKit/537.36 (KHTML, like Gecko) Chrome/92.0.4515.159 Safari/537.36",1366,625,1366,768,,,,,,,,6,2.4078,0.44140625,-0.407552083,1,0,0,next_trial_button,0,46,46,58,1,beach,visiblesun,noclouds,7,"1028.5714285714284,500",
,,,,,,,gr,gr,gr,f,23,,2021-08-31_17h37.02.999,online_experiment,2021.1.4,Win32,60.0132029,FALSE,,"Mozilla/5.0 (Windows NT 10.0; Win64; x64) AppleWebKit/537.36 (KHTML, like Gecko) Chrome/92.0.4515.159 Safari/537.36",1366,625,1366,768,,,,,,,,5,6.6474,0.342447917,-0.4453125,1,0,0,next_trial_button,0,47,47,64,1,beach,invisiblesun,noclouds,8,"1028.5714285714284,500",
,,,,,,,gr,gr,gr,f,23,,2021-08-31_17h37.02.999,online_experiment,2021.1.4,Win32,60.0132029,FALSE,,"Mozilla/5.0 (Windows NT 10.0; Win64; x64) AppleWebKit/537.36 (KHTML, like Gecko) Chrome/92.0.4515.159 Safari/537.36",1366,625,1366,768,,,,,,,,7,2.5621,0.4375,-0.384114583,1,0,0,next_trial_button,0,48,48,29,1,landscape,invisiblesun,yesclouds,3,"749.8660953401178,500",
,,,,,,,gr,gr,gr,f,23,,2021-08-31_17h37.02.999,online_experiment,2021.1.4,Win32,60.0132029,FALSE,,"Mozilla/5.0 (Windows NT 10.0; Win64; x64) AppleWebKit/537.36 (KHTML, like Gecko) Chrome/92.0.4515.159 Safari/537.36",1366,625,1366,768,,,,,,,,4,5.1709,0.364583333,-0.423177083,1,0,0,next_trial_button,0,49,49,19,1,beach,visiblesun,yesclouds,2,"770.1393095093882,500",
,,,,,,,gr,gr,gr,f,23,,2021-08-31_17h37.02.999,online_experiment,2021.1.4,Win32,60.0132029,FALSE,,"Mozilla/5.0 (Windows NT 10.0; Win64; x64) AppleWebKit/537.36 (KHTML, like Gecko) Chrome/92.0.4515.159 Safari/537.36",1366,625,1366,768,,,,,,,,6,4.9931,0.411458333,-0.42578125,1,0,0,next_trial_button,0,50,50,71,1,landscape,visiblesun,yesclouds,8,"666.6666666666666,500",
,,,,,,,gr,gr,gr,f,23,,2021-08-31_17h37.02.999,online_experiment,2021.1.4,Win32,60.0132029,FALSE,,"Mozilla/5.0 (Windows NT 10.0; Win64; x64) AppleWebKit/537.36 (KHTML, like Gecko) Chrome/92.0.4515.159 Safari/537.36",1366,625,1366,768,,,,,,,,6,2.6506,0.34375,-0.458333333,1,0,0,next_trial_button,0,51,51,50,1,beach,visiblesun,noclouds,6,"666.6666666666666,500",
,,,,,,,gr,gr,gr,f,23,,2021-08-31_17h37.02.999,online_experiment,2021.1.4,Win32,60.0132029,FALSE,,"Mozilla/5.0 (Windows NT 10.0; Win64; x64) AppleWebKit/537.36 (KHTML, like Gecko) Chrome/92.0.4515.159 Safari/537.36",1366,625,1366,768,,,,,,,,2,3.231,0.454427083,-0.41015625,1,0,0,next_trial_button,0,52,52,48,1,beach,invisiblesun,noclouds,6,"1028.5714285714284,500",
,,,,,,,gr,gr,gr,f,23,,2021-08-31_17h37.02.999,online_experiment,2021.1.4,Win32,60.0132029,FALSE,,"Mozilla/5.0 (Windows NT 10.0; Win64; x64) AppleWebKit/537.36 (KHTML, like Gecko) Chrome/92.0.4515.159 Safari/537.36",1366,625,1366,768,,,,,,,,9,2.3455,0.341145833,-0.451822917,1,0,0,next_trial_button,0,53,53,61,1,landscape,invisiblesun,yesclouds,7,"500,500",
,,,,,,,gr,gr,gr,f,23,,2021-08-31_17h37.02.999,online_experiment,2021.1.4,Win32,60.0132029,FALSE,,"Mozilla/5.0 (Windows NT 10.0; Win64; x64) AppleWebKit/537.36 (KHTML, like Gecko) Chrome/92.0.4515.159 Safari/537.36",1366,625,1366,768,,,,,,,,2,2.9887,0.345052083,-0.404947917,1,0,0,next_trial_button,0,54,54,36,1,landscape,invisiblesun,noclouds,4,"281.25,500",
,,,,,,,gr,gr,gr,f,23,,2021-08-31_17h37.02.999,online_experiment,2021.1.4,Win32,60.0132029,FALSE,,"Mozilla/5.0 (Windows NT 10.0; Win64; x64) AppleWebKit/537.36 (KHTML, like Gecko) Chrome/92.0.4515.159 Safari/537.36",1366,625,1366,768,,,,,,,,6,4.07,0.384114583,-0.436197917,1,0,0,next_trial_button,0,55,55,75,1,beach,visiblesun,yesclouds,9,"1029.6010296010297,500",
,,,,,,,gr,gr,gr,f,23,,2021-08-31_17h37.02.999,online_experiment,2021.1.4,Win32,60.0132029,FALSE,,"Mozilla/5.0 (Windows NT 10.0; Win64; x64) AppleWebKit/537.36 (KHTML, like Gecko) Chrome/92.0.4515.159 Safari/537.36",1366,625,1366,768,,,,,,,,8,4.4307,0.34765625,-0.403645833,1,0,0,next_trial_button,0,56,56,69,1,landscape,invisiblesun,yesclouds,8,"750,500",
,,,,,,,gr,gr,gr,f,23,,2021-08-31_17h37.02.999,online_experiment,2021.1.4,Win32,60.0132029,FALSE,,"Mozilla/5.0 (Windows NT 10.0; Win64; x64) AppleWebKit/537.36 (KHTML, like Gecko) Chrome/92.0.4515.159 Safari/537.36",1366,625,1366,768,,,,,,,,4,2.0836,0.360677083,-0.442708333,1,0,0,next_trial_button,0,57,57,25,1,beach,invisiblesun,yesclouds,3,"750.4690431519699,500",
,,,,,,,gr,gr,gr,f,23,,2021-08-31_17h37.02.999,online_experiment,2021.1.4,Win32,60.0132029,FALSE,,"Mozilla/5.0 (Windows NT 10.0; Win64; x64) AppleWebKit/537.36 (KHTML, like Gecko) Chrome/92.0.4515.159 Safari/537.36",1366,625,1366,768,,,,,,,,3,2.7464,0.3828125,-0.40625,1,0,0,next_trial_button,0,58,58,77,1,landscape,invisiblesun,yesclouds,9,"888.8888888888888,500",
,,,,,,,gr,gr,gr,f,23,,2021-08-31_17h37.02.999,online_experiment,2021.1.4,Win32,60.0132029,FALSE,,"Mozilla/5.0 (Windows NT 10.0; Win64; x64) AppleWebKit/537.36 (KHTML, like Gecko) Chrome/92.0.4515.159 Safari/537.36",1366,625,1366,768,,,,,,,,8,5.1648,0.380208333,-0.407552083,1,0,0,next_trial_button,0,59,59,57,1,beach,invisiblesun,yesclouds,7,"749.707488299532,500",
,,,,,,,gr,gr,gr,f,23,,2021-08-31_17h37.02.999,online_experiment,2021.1.4,Win32,60.0132029,FALSE,,"Mozilla/5.0 (Windows NT 10.0; Win64; x64) AppleWebKit/537.36 (KHTML, like Gecko) Chrome/92.0.4515.159 Safari/537.36",1366,625,1366,768,,,,,,,,3,2.6715,0.401041667,-0.416666667,1,0,0,next_trial_button,0,60,60,55,1,landscape,visiblesun,yesclouds,6,"749.8819083608881,500",
,,,,,,,gr,gr,gr,f,23,,2021-08-31_17h37.02.999,online_experiment,2021.1.4,Win32,60.0132029,FALSE,,"Mozilla/5.0 (Windows NT 10.0; Win64; x64) AppleWebKit/537.36 (KHTML, like Gecko) Chrome/92.0.4515.159 Safari/537.36",1366,625,1366,768,,,,,,,,5,4.8817,0.450520833,-0.390625,1,0,0,next_trial_button,0,61,61,15,1,landscape,visiblesun,yesclouds,1,"333.3333333333333,500",
,,,,,,,gr,gr,gr,f,23,,2021-08-31_17h37.02.999,online_experiment,2021.1.4,Win32,60.0132029,FALSE,,"Mozilla/5.0 (Windows NT 10.0; Win64; x64) AppleWebKit/537.36 (KHTML, like Gecko) Chrome/92.0.4515.159 Safari/537.36",1366,625,1366,768,,,,,,,,5,2.7421,0.36328125,-0.423177083,1,0,0,next_trial_button,0,62,62,40,1,beach,invisiblesun,noclouds,5,"1028.5714285714284,500",
,,,,,,,gr,gr,gr,f,23,,2021-08-31_17h37.02.999,online_experiment,2021.1.4,Win32,60.0132029,FALSE,,"Mozilla/5.0 (Windows NT 10.0; Win64; x64) AppleWebKit/537.36 (KHTML, like Gecko) Chrome/92.0.4515.159 Safari/537.36",1366,625,1366,768,,,,,,,,7,2.575,0.39453125,-0.4140625,1,0,0,next_trial_button,0,63,63,9,1,beach,invisiblesun,yesclouds,1,"750,500",
,,,,,,,gr,gr,gr,f,23,,2021-08-31_17h37.02.999,online_experiment,2021.1.4,Win32,60.0132029,FALSE,,"Mozilla/5.0 (Windows NT 10.0; Win64; x64) AppleWebKit/537.36 (KHTML, like Gecko) Chrome/92.0.4515.159 Safari/537.36",1366,625,1366,768,,,,,,,,8,2.4475,0.338541667,-0.408854167,1,0,0,next_trial_button,0,64,64,47,1,landscape,visiblesun,yesclouds,5,"666.6666666666666,500",
,,,,,,,gr,gr,gr,f,23,,2021-08-31_17h37.02.999,online_experiment,2021.1.4,Win32,60.0132029,FALSE,,"Mozilla/5.0 (Windows NT 10.0; Win64; x64) AppleWebKit/537.36 (KHTML, like Gecko) Chrome/92.0.4515.159 Safari/537.36",1366,625,1366,768,,,,,,,,2,2.9147,0.440104167,-0.432291667,1,0,0,next_trial_button,0,65,65,78,1,landscape,visiblesun,noclouds,9,"666.6666666666666,500",
,,,,,,,gr,gr,gr,f,23,,2021-08-31_17h37.02.999,online_experiment,2021.1.4,Win32,60.0132029,FALSE,,"Mozilla/5.0 (Windows NT 10.0; Win64; x64) AppleWebKit/537.36 (KHTML, like Gecko) Chrome/92.0.4515.159 Safari/537.36",1366,625,1366,768,,,,,,,,1,2.1593,0.397135417,-0.428385417,1,0,0,next_trial_button,0,66,66,52,1,landscape,invisiblesun,noclouds,6,"666.6666666666666,500",
,,,,,,,gr,gr,gr,f,23,,2021-08-31_17h37.02.999,online_experiment,2021.1.4,Win32,60.0132029,FALSE,,"Mozilla/5.0 (Windows NT 10.0; Win64; x64) AppleWebKit/537.36 (KHTML, like Gecko) Chrome/92.0.4515.159 Safari/537.36",1366,625,1366,768,,,,,,,,9,2.1226,0.438802083,-0.40234375,1,0,0,next_trial_button,0,67,67,45,1,landscape,invisiblesun,yesclouds,5,"749.6251874062968,500",
,,,,,,,gr,gr,gr,f,23,,2021-08-31_17h37.02.999,online_experiment,2021.1.4,Win32,60.0132029,FALSE,,"Mozilla/5.0 (Windows NT 10.0; Win64; x64) AppleWebKit/537.36 (KHTML, like Gecko) Chrome/92.0.4515.159 Safari/537.36",1366,625,1366,768,,,,,,,,7,2.76,0.338541667,-0.423177083,1,0,0,next_trial_button,0,68,68,41,1,beach,invisiblesun,yesclouds,5,"1248.4394506866417,500",
,,,,,,,gr,gr,gr,f,23,,2021-08-31_17h37.02.999,online_experiment,2021.1.4,Win32,60.0132029,FALSE,,"Mozilla/5.0 (Windows NT 10.0; Win64; x64) AppleWebKit/537.36 (KHTML, like Gecko) Chrome/92.0.4515.159 Safari/537.36",1366,625,1366,768,,,,,,,,6,5.0693,0.356770833,-0.407552083,1,0,0,next_trial_button,0,69,69,22,1,landscape,visiblesun,noclouds,2,"749.3333333333333,500",
,,,,,,,gr,gr,gr,f,23,,2021-08-31_17h37.02.999,online_experiment,2021.1.4,Win32,60.0132029,FALSE,,"Mozilla/5.0 (Windows NT 10.0; Win64; x64) AppleWebKit/537.36 (KHTML, like Gecko) Chrome/92.0.4515.159 Safari/537.36",1366,625,1366,768,,,,,,,,2,2.2446,0.385416667,-0.407552083,1,0,0,next_trial_button,0,70,70,7,1,landscape,visiblesun,yesclouds,0,"743.421052631579,500",
,,,,,,,gr,gr,gr,f,23,,2021-08-31_17h37.02.999,online_experiment,2021.1.4,Win32,60.0132029,FALSE,,"Mozilla/5.0 (Windows NT 10.0; Win64; x64) AppleWebKit/537.36 (KHTML, like Gecko) Chrome/92.0.4515.159 Safari/537.36",1366,625,1366,768,,,,,,,,2,2.142,0.479166667,-0.416666667,1,0,0,next_trial_button,0,71,71,34,1,beach,visiblesun,noclouds,4,"749.6251874062968,500",
,,,,,,,gr,gr,gr,f,23,,2021-08-31_17h37.02.999,online_experiment,2021.1.4,Win32,60.0132029,FALSE,,"Mozilla/5.0 (Windows NT 10.0; Win64; x64) AppleWebKit/537.36 (KHTML, like Gecko) Chrome/92.0.4515.159 Safari/537.36",1366,625,1366,768,,,,,,,,5,2.6658,0.44921875,-0.399739583,1,0,0,next_trial_button,0,72,72,23,1,landscape,visiblesun,yesclouds,2,"767.97829036635,500",
,,,,,,,gr,gr,gr,f,23,,2021-08-31_17h37.02.999,online_experiment,2021.1.4,Win32,60.0132029,FALSE,,"Mozilla/5.0 (Windows NT 10.0; Win64; x64) AppleWebKit/537.36 (KHTML, like Gecko) Chrome/92.0.4515.159 Safari/537.36",1366,625,1366,768,,,,,,,,5,7.5419,0.489583333,-0.407552083,1,0,0,next_trial_button,0,73,73,54,1,landscape,visiblesun,noclouds,6,"695.0043821209465,500",
,,,,,,,gr,gr,gr,f,23,,2021-08-31_17h37.02.999,online_experiment,2021.1.4,Win32,60.0132029,FALSE,,"Mozilla/5.0 (Windows NT 10.0; Win64; x64) AppleWebKit/537.36 (KHTML, like Gecko) Chrome/92.0.4515.159 Safari/537.36",1366,625,1366,768,,,,,,,,4,2.3348,0.384114583,-0.415364583,1,0,0,next_trial_button,0,74,74,35,1,beach,visiblesun,yesclouds,4,"750,500",
,,,,,,,gr,gr,gr,f,23,,2021-08-31_17h37.02.999,online_experiment,2021.1.4,Win32,60.0132029,FALSE,,"Mozilla/5.0 (Windows NT 10.0; Win64; x64) AppleWebKit/537.36 (KHTML, like Gecko) Chrome/92.0.4515.159 Safari/537.36",1366,625,1366,768,,,,,,,,4,8.1762,0.401041667,-0.393229167,1,0,0,next_trial_button,0,75,75,42,1,beach,visiblesun,noclouds,5,"834.4594594594595,500",
,,,,,,,gr,gr,gr,f,23,,2021-08-31_17h37.02.999,online_experiment,2021.1.4,Win32,60.0132029,FALSE,,"Mozilla/5.0 (Windows NT 10.0; Win64; x64) AppleWebKit/537.36 (KHTML, like Gecko) Chrome/92.0.4515.159 Safari/537.36",1366,625,1366,768,,,,,,,,1,2.6764,0.37109375,-0.39453125,1,0,0,next_trial_button,0,76,76,68,1,landscape,invisiblesun,noclouds,8,"666.6666666666666,500",
,,,,,,,gr,gr,gr,f,23,,2021-08-31_17h37.02.999,online_experiment,2021.1.4,Win32,60.0132029,FALSE,,"Mozilla/5.0 (Windows NT 10.0; Win64; x64) AppleWebKit/537.36 (KHTML, like Gecko) Chrome/92.0.4515.159 Safari/537.36",1366,625,1366,768,,,,,,,,8,3.274,0.337239583,-0.391927083,1,0,0,next_trial_button,0,77,77,6,1,landscape,visiblesun,noclouds,0,"1413.8005159071367,500",
,,,,,,,gr,gr,gr,f,23,,2021-08-31_17h37.02.999,online_experiment,2021.1.4,Win32,60.0132029,FALSE,,"Mozilla/5.0 (Windows NT 10.0; Win64; x64) AppleWebKit/537.36 (KHTML, like Gecko) Chrome/92.0.4515.159 Safari/537.36",1366,625,1366,768,,,,,,,,7,5.3356,0.334635417,-0.390625,1,0,0,next_trial_button,0,78,78,16,1,beach,invisiblesun,noclouds,2,"752.8089887640449,500",
,,,,,,,gr,gr,gr,f,23,,2021-08-31_17h37.02.999,online_experiment,2021.1.4,Win32,60.0132029,FALSE,,"Mozilla/5.0 (Windows NT 10.0; Win64; x64) AppleWebKit/537.36 (KHTML, like Gecko) Chrome/92.0.4515.159 Safari/537.36",1366,625,1366,768,,,,,,,,2,2.5719,0.38671875,-0.451822917,1,0,0,next_trial_button,0,79,79,72,1,beach,invisiblesun,noclouds,9,"888.8888888888888,500",
,,,,,,,gr,gr,gr,f,23,,2021-08-31_17h37.02.999,online_experiment,2021.1.4,Win32,60.0132029,FALSE,,"Mozilla/5.0 (Windows NT 10.0; Win64; x64) AppleWebKit/537.36 (KHTML, like Gecko) Chrome/92.0.4515.159 Safari/537.36",1366,625,1366,768,,,,,,,,,,,,,,,,,,,,,,,,,"888.8888888888888,500",561.3594
