language_mouse.x,language_mouse.y,language_mouse.leftButton,language_mouse.midButton,language_mouse.rightButton,language_mouse.time,language_mouse.clicked_name,nationality,mother_tongue,homeland,gender,age,email,date,expName,psychopyVersion,OS,frameRate,cancel_experiment,cancel_reasons,client_agent_information,windowWidth,windowHeight,xRes,yRes,start_exp_mouse.x,start_exp_mouse.y,start_exp_mouse.leftButton,start_exp_mouse.midButton,start_exp_mouse.rightButton,start_exp_mouse.time,start_exp_mouse.clicked_name,rating_slider.response,rating_slider.rt,next_trial_mouse.x,next_trial_mouse.y,next_trial_mouse.leftButton,next_trial_mouse.midButton,next_trial_mouse.rightButton,next_trial_mouse.clicked_name,trials.thisRepN,trials.thisTrialN,trials.thisN,trials.thisIndex,trials.ran,environment,sunVisibility,cloudVisibility,imageId,imgSize,globalClockTime
0.301666667,-0.2175,1,0,0,1.283,gr_flag,gr,gr,gr,m,23,,2021-08-31_16h09.38.904,online_experiment,2021.1.4,Win32,60.0240096,FALSE,,Mozilla/5.0 (Windows NT 10.0; Win64; x64; rv:90.0) Gecko/20100101 Firefox/90.0,1920,1075,1920,1200,,,,,,,,,,,,,,,,,,,,,,,,,,
,,,,,,,gr,gr,gr,m,23,,2021-08-31_16h09.38.904,online_experiment,2021.1.4,Win32,60.0240096,FALSE,,Mozilla/5.0 (Windows NT 10.0; Win64; x64; rv:90.0) Gecko/20100101 Firefox/90.0,1920,1075,1920,1200,0.065833333,-0.395833333,1,0,0,16.946,cont_gr,5,7.555,0.459166667,-0.418333333,1,0,0,next_trial_button,0,0,0,42,1,beach,visiblesun,noclouds,5,"834.4594594594595,500",
,,,,,,,gr,gr,gr,m,23,,2021-08-31_16h09.38.904,online_experiment,2021.1.4,Win32,60.0240096,FALSE,,Mozilla/5.0 (Windows NT 10.0; Win64; x64; rv:90.0) Gecko/20100101 Firefox/90.0,1920,1075,1920,1200,,,,,,,,4,4.278,0.376666667,-0.409166667,1,0,0,next_trial_button,0,1,1,11,1,beach,visiblesun,yesclouds,1,"989.8132427843803,500",
,,,,,,,gr,gr,gr,m,23,,2021-08-31_16h09.38.904,online_experiment,2021.1.4,Win32,60.0240096,FALSE,,Mozilla/5.0 (Windows NT 10.0; Win64; x64; rv:90.0) Gecko/20100101 Firefox/90.0,1920,1075,1920,1200,,,,,,,,7,1.974,0.36,-0.409166667,1,0,0,next_trial_button,0,2,2,4,1,landscape,invisiblesun,noclouds,0,"1276.9171185127807,500",
,,,,,,,gr,gr,gr,m,23,,2021-08-31_16h09.38.904,online_experiment,2021.1.4,Win32,60.0240096,FALSE,,Mozilla/5.0 (Windows NT 10.0; Win64; x64; rv:90.0) Gecko/20100101 Firefox/90.0,1920,1075,1920,1200,,,,,,,,4,6.873,0.39,-0.396666667,1,0,0,next_trial_button,0,3,3,5,1,landscape,invisiblesun,yesclouds,0,"750.4690431519699,500",
,,,,,,,gr,gr,gr,m,23,,2021-08-31_16h09.38.904,online_experiment,2021.1.4,Win32,60.0240096,FALSE,,Mozilla/5.0 (Windows NT 10.0; Win64; x64; rv:90.0) Gecko/20100101 Firefox/90.0,1920,1075,1920,1200,,,,,,,,8,2.442,0.445,-0.42,1,0,0,next_trial_button,0,4,4,34,1,beach,visiblesun,noclouds,4,"749.6251874062968,500",
,,,,,,,gr,gr,gr,m,23,,2021-08-31_16h09.38.904,online_experiment,2021.1.4,Win32,60.0240096,FALSE,,Mozilla/5.0 (Windows NT 10.0; Win64; x64; rv:90.0) Gecko/20100101 Firefox/90.0,1920,1075,1920,1200,,,,,,,,6,1.963,0.458333333,-0.419166667,1,0,0,next_trial_button,0,5,5,56,1,beach,invisiblesun,noclouds,7,"1028.5714285714284,500",
,,,,,,,gr,gr,gr,m,23,,2021-08-31_16h09.38.904,online_experiment,2021.1.4,Win32,60.0240096,FALSE,,Mozilla/5.0 (Windows NT 10.0; Win64; x64; rv:90.0) Gecko/20100101 Firefox/90.0,1920,1075,1920,1200,,,,,,,,9,2.293,0.439166667,-0.4025,1,0,0,next_trial_button,0,6,6,22,1,landscape,visiblesun,noclouds,2,"749.3333333333333,500",
,,,,,,,gr,gr,gr,m,23,,2021-08-31_16h09.38.904,online_experiment,2021.1.4,Win32,60.0240096,FALSE,,Mozilla/5.0 (Windows NT 10.0; Win64; x64; rv:90.0) Gecko/20100101 Firefox/90.0,1920,1075,1920,1200,,,,,,,,9,4.648,0.35,-0.416666667,1,0,0,next_trial_button,0,7,7,64,1,beach,invisiblesun,noclouds,8,"1028.5714285714284,500",
,,,,,,,gr,gr,gr,m,23,,2021-08-31_16h09.38.904,online_experiment,2021.1.4,Win32,60.0240096,FALSE,,Mozilla/5.0 (Windows NT 10.0; Win64; x64; rv:90.0) Gecko/20100101 Firefox/90.0,1920,1075,1920,1200,,,,,,,,2,2.939,0.4425,-0.416666667,1,0,0,next_trial_button,0,8,8,36,1,landscape,invisiblesun,noclouds,4,"281.25,500",
,,,,,,,gr,gr,gr,m,23,,2021-08-31_16h09.38.904,online_experiment,2021.1.4,Win32,60.0240096,FALSE,,Mozilla/5.0 (Windows NT 10.0; Win64; x64; rv:90.0) Gecko/20100101 Firefox/90.0,1920,1075,1920,1200,,,,,,,,7,2.155,0.37,-0.404166667,1,0,0,next_trial_button,0,9,9,43,1,beach,visiblesun,yesclouds,5,"750,500",
,,,,,,,gr,gr,gr,m,23,,2021-08-31_16h09.38.904,online_experiment,2021.1.4,Win32,60.0240096,FALSE,,Mozilla/5.0 (Windows NT 10.0; Win64; x64; rv:90.0) Gecko/20100101 Firefox/90.0,1920,1075,1920,1200,,,,,,,,4,1.96,0.384166667,-0.415,1,0,0,next_trial_button,0,10,10,21,1,landscape,invisiblesun,yesclouds,2,"750,500",
,,,,,,,gr,gr,gr,m,23,,2021-08-31_16h09.38.904,online_experiment,2021.1.4,Win32,60.0240096,FALSE,,Mozilla/5.0 (Windows NT 10.0; Win64; x64; rv:90.0) Gecko/20100101 Firefox/90.0,1920,1075,1920,1200,,,,,,,,7,4.262,0.385,-0.419166667,1,0,0,next_trial_button,0,11,11,18,1,beach,visiblesun,noclouds,2,"666.6666666666666,500",
,,,,,,,gr,gr,gr,m,23,,2021-08-31_16h09.38.904,online_experiment,2021.1.4,Win32,60.0240096,FALSE,,Mozilla/5.0 (Windows NT 10.0; Win64; x64; rv:90.0) Gecko/20100101 Firefox/90.0,1920,1075,1920,1200,,,,,,,,3,2.01,0.4025,-0.428333333,1,0,0,next_trial_button,0,12,12,72,1,beach,invisiblesun,noclouds,9,"888.8888888888888,500",
,,,,,,,gr,gr,gr,m,23,,2021-08-31_16h09.38.904,online_experiment,2021.1.4,Win32,60.0240096,FALSE,,Mozilla/5.0 (Windows NT 10.0; Win64; x64; rv:90.0) Gecko/20100101 Firefox/90.0,1920,1075,1920,1200,,,,,,,,7,2.758,0.386666667,-0.426666667,1,0,0,next_trial_button,0,13,13,24,1,beach,invisiblesun,noclouds,3,"750.089190153407,500",
,,,,,,,gr,gr,gr,m,23,,2021-08-31_16h09.38.904,online_experiment,2021.1.4,Win32,60.0240096,FALSE,,Mozilla/5.0 (Windows NT 10.0; Win64; x64; rv:90.0) Gecko/20100101 Firefox/90.0,1920,1075,1920,1200,,,,,,,,2,2.414,0.385833333,-0.411666667,1,0,0,next_trial_button,0,14,14,44,1,landscape,invisiblesun,noclouds,5,"666.6666666666666,500",
,,,,,,,gr,gr,gr,m,23,,2021-08-31_16h09.38.904,online_experiment,2021.1.4,Win32,60.0240096,FALSE,,Mozilla/5.0 (Windows NT 10.0; Win64; x64; rv:90.0) Gecko/20100101 Firefox/90.0,1920,1075,1920,1200,,,,,,,,6,2.442,0.438333333,-0.41,1,0,0,next_trial_button,0,15,15,65,1,beach,invisiblesun,yesclouds,8,"750,500",
,,,,,,,gr,gr,gr,m,23,,2021-08-31_16h09.38.904,online_experiment,2021.1.4,Win32,60.0240096,FALSE,,Mozilla/5.0 (Windows NT 10.0; Win64; x64; rv:90.0) Gecko/20100101 Firefox/90.0,1920,1075,1920,1200,,,,,,,,7,1.873,0.3775,-0.394166667,1,0,0,next_trial_button,0,16,16,50,1,beach,visiblesun,noclouds,6,"666.6666666666666,500",
,,,,,,,gr,gr,gr,m,23,,2021-08-31_16h09.38.904,online_experiment,2021.1.4,Win32,60.0240096,FALSE,,Mozilla/5.0 (Windows NT 10.0; Win64; x64; rv:90.0) Gecko/20100101 Firefox/90.0,1920,1075,1920,1200,,,,,,,,9,2.391,0.383333333,-0.401666667,1,0,0,next_trial_button,0,17,17,57,1,beach,invisiblesun,yesclouds,7,"749.707488299532,500",
,,,,,,,gr,gr,gr,m,23,,2021-08-31_16h09.38.904,online_experiment,2021.1.4,Win32,60.0240096,FALSE,,Mozilla/5.0 (Windows NT 10.0; Win64; x64; rv:90.0) Gecko/20100101 Firefox/90.0,1920,1075,1920,1200,,,,,,,,1,2.296,0.431666667,-0.404166667,1,0,0,next_trial_button,0,18,18,78,1,landscape,visiblesun,noclouds,9,"666.6666666666666,500",
,,,,,,,gr,gr,gr,m,23,,2021-08-31_16h09.38.904,online_experiment,2021.1.4,Win32,60.0240096,FALSE,,Mozilla/5.0 (Windows NT 10.0; Win64; x64; rv:90.0) Gecko/20100101 Firefox/90.0,1920,1075,1920,1200,,,,,,,,1,1.991,0.3525,-0.4125,1,0,0,next_trial_button,0,19,19,68,1,landscape,invisiblesun,noclouds,8,"666.6666666666666,500",
,,,,,,,gr,gr,gr,m,23,,2021-08-31_16h09.38.904,online_experiment,2021.1.4,Win32,60.0240096,FALSE,,Mozilla/5.0 (Windows NT 10.0; Win64; x64; rv:90.0) Gecko/20100101 Firefox/90.0,1920,1075,1920,1200,,,,,,,,5,2.925,0.436666667,-0.390833333,1,0,0,next_trial_button,0,20,20,46,1,landscape,visiblesun,noclouds,5,"750,500",
,,,,,,,gr,gr,gr,m,23,,2021-08-31_16h09.38.904,online_experiment,2021.1.4,Win32,60.0240096,FALSE,,Mozilla/5.0 (Windows NT 10.0; Win64; x64; rv:90.0) Gecko/20100101 Firefox/90.0,1920,1075,1920,1200,,,,,,,,7,5.739,0.378333333,-0.4025,1,0,0,next_trial_button,0,21,21,73,1,beach,invisiblesun,yesclouds,9,"1028.5714285714284,500",
,,,,,,,gr,gr,gr,m,23,,2021-08-31_16h09.38.904,online_experiment,2021.1.4,Win32,60.0240096,FALSE,,Mozilla/5.0 (Windows NT 10.0; Win64; x64; rv:90.0) Gecko/20100101 Firefox/90.0,1920,1075,1920,1200,,,,,,,,7,3.122,0.3875,-0.4,1,0,0,next_trial_button,0,22,22,33,1,beach,invisiblesun,yesclouds,4,"751.5473032714411,500",
,,,,,,,gr,gr,gr,m,23,,2021-08-31_16h09.38.904,online_experiment,2021.1.4,Win32,60.0240096,FALSE,,Mozilla/5.0 (Windows NT 10.0; Win64; x64; rv:90.0) Gecko/20100101 Firefox/90.0,1920,1075,1920,1200,,,,,,,,4,1.759,0.350833333,-0.425,1,0,0,next_trial_button,0,23,23,70,1,landscape,visiblesun,noclouds,8,"666.6666666666666,500",
,,,,,,,gr,gr,gr,m,23,,2021-08-31_16h09.38.904,online_experiment,2021.1.4,Win32,60.0240096,FALSE,,Mozilla/5.0 (Windows NT 10.0; Win64; x64; rv:90.0) Gecko/20100101 Firefox/90.0,1920,1075,1920,1200,,,,,,,,4,3.199,0.383333333,-0.395,1,0,0,next_trial_button,0,24,24,63,1,landscape,visiblesun,yesclouds,7,"331.94444444444446,500",
,,,,,,,gr,gr,gr,m,23,,2021-08-31_16h09.38.904,online_experiment,2021.1.4,Win32,60.0240096,FALSE,,Mozilla/5.0 (Windows NT 10.0; Win64; x64; rv:90.0) Gecko/20100101 Firefox/90.0,1920,1075,1920,1200,,,,,,,,7,2.175,0.444166667,-0.405,1,0,0,next_trial_button,0,25,25,27,1,beach,visiblesun,yesclouds,3,"752.8089887640449,500",
,,,,,,,gr,gr,gr,m,23,,2021-08-31_16h09.38.904,online_experiment,2021.1.4,Win32,60.0240096,FALSE,,Mozilla/5.0 (Windows NT 10.0; Win64; x64; rv:90.0) Gecko/20100101 Firefox/90.0,1920,1075,1920,1200,,,,,,,,4,1.959,0.5075,-0.425833333,1,0,0,next_trial_button,0,26,26,37,1,landscape,invisiblesun,yesclouds,4,"669.4214876033058,500",
,,,,,,,gr,gr,gr,m,23,,2021-08-31_16h09.38.904,online_experiment,2021.1.4,Win32,60.0240096,FALSE,,Mozilla/5.0 (Windows NT 10.0; Win64; x64; rv:90.0) Gecko/20100101 Firefox/90.0,1920,1075,1920,1200,,,,,,,,6,12.192,0.406666667,-0.425,1,0,0,next_trial_button,0,27,27,6,1,landscape,visiblesun,noclouds,0,"1413.8005159071367,500",
,,,,,,,gr,gr,gr,m,23,,2021-08-31_16h09.38.904,online_experiment,2021.1.4,Win32,60.0240096,FALSE,,Mozilla/5.0 (Windows NT 10.0; Win64; x64; rv:90.0) Gecko/20100101 Firefox/90.0,1920,1075,1920,1200,,,,,,,,8,4.692,0.353333333,-0.390833333,1,0,0,next_trial_button,0,28,28,3,1,beach,visiblesun,yesclouds,0,"1152.5122276567363,500",
,,,,,,,gr,gr,gr,m,23,,2021-08-31_16h09.38.904,online_experiment,2021.1.4,Win32,60.0240096,FALSE,,Mozilla/5.0 (Windows NT 10.0; Win64; x64; rv:90.0) Gecko/20100101 Firefox/90.0,1920,1075,1920,1200,,,,,,,,8,3.545,0.433333333,-0.418333333,1,0,0,next_trial_button,0,29,29,30,1,landscape,visiblesun,noclouds,3,"346.3035019455253,500",
,,,,,,,gr,gr,gr,m,23,,2021-08-31_16h09.38.904,online_experiment,2021.1.4,Win32,60.0240096,FALSE,,Mozilla/5.0 (Windows NT 10.0; Win64; x64; rv:90.0) Gecko/20100101 Firefox/90.0,1920,1075,1920,1200,,,,,,,,8,2.142,0.370833333,-0.4125,1,0,0,next_trial_button,0,30,30,39,1,landscape,visiblesun,yesclouds,4,"749.7656982193065,500",
,,,,,,,gr,gr,gr,m,23,,2021-08-31_16h09.38.904,online_experiment,2021.1.4,Win32,60.0240096,FALSE,,Mozilla/5.0 (Windows NT 10.0; Win64; x64; rv:90.0) Gecko/20100101 Firefox/90.0,1920,1075,1920,1200,,,,,,,,4,2.328,0.446666667,-0.42,1,0,0,next_trial_button,0,31,31,48,1,beach,invisiblesun,noclouds,6,"1028.5714285714284,500",
,,,,,,,gr,gr,gr,m,23,,2021-08-31_16h09.38.904,online_experiment,2021.1.4,Win32,60.0240096,FALSE,,Mozilla/5.0 (Windows NT 10.0; Win64; x64; rv:90.0) Gecko/20100101 Firefox/90.0,1920,1075,1920,1200,,,,,,,,5,2.923,0.326666667,-0.391666667,1,0,0,next_trial_button,0,32,32,61,1,landscape,invisiblesun,yesclouds,7,"500,500",
,,,,,,,gr,gr,gr,m,23,,2021-08-31_16h09.38.904,online_experiment,2021.1.4,Win32,60.0240096,FALSE,,Mozilla/5.0 (Windows NT 10.0; Win64; x64; rv:90.0) Gecko/20100101 Firefox/90.0,1920,1075,1920,1200,,,,,,,,7,2.178,0.325833333,-0.384166667,1,0,0,next_trial_button,0,33,33,17,1,beach,invisiblesun,yesclouds,2,"684.8635235732011,500",
,,,,,,,gr,gr,gr,m,23,,2021-08-31_16h09.38.904,online_experiment,2021.1.4,Win32,60.0240096,FALSE,,Mozilla/5.0 (Windows NT 10.0; Win64; x64; rv:90.0) Gecko/20100101 Firefox/90.0,1920,1075,1920,1200,,,,,,,,6,1.727,0.420833333,-0.3975,1,0,0,next_trial_button,0,34,34,7,1,landscape,visiblesun,yesclouds,0,"743.421052631579,500",
,,,,,,,gr,gr,gr,m,23,,2021-08-31_16h09.38.904,online_experiment,2021.1.4,Win32,60.0240096,FALSE,,Mozilla/5.0 (Windows NT 10.0; Win64; x64; rv:90.0) Gecko/20100101 Firefox/90.0,1920,1075,1920,1200,,,,,,,,2,1.781,0.3875,-0.42,1,0,0,next_trial_button,0,35,35,79,1,landscape,visiblesun,yesclouds,9,"1028.5714285714284,500",
,,,,,,,gr,gr,gr,m,23,,2021-08-31_16h09.38.904,online_experiment,2021.1.4,Win32,60.0240096,FALSE,,Mozilla/5.0 (Windows NT 10.0; Win64; x64; rv:90.0) Gecko/20100101 Firefox/90.0,1920,1075,1920,1200,,,,,,,,2,1.993,0.416666667,-0.4125,1,0,0,next_trial_button,0,36,36,71,1,landscape,visiblesun,yesclouds,8,"666.6666666666666,500",
,,,,,,,gr,gr,gr,m,23,,2021-08-31_16h09.38.904,online_experiment,2021.1.4,Win32,60.0240096,FALSE,,Mozilla/5.0 (Windows NT 10.0; Win64; x64; rv:90.0) Gecko/20100101 Firefox/90.0,1920,1075,1920,1200,,,,,,,,8,2.058,0.366666667,-0.415,1,0,0,next_trial_button,0,37,37,1,1,beach,invisiblesun,yesclouds,0,"666.6666666666666,500",
,,,,,,,gr,gr,gr,m,23,,2021-08-31_16h09.38.904,online_experiment,2021.1.4,Win32,60.0240096,FALSE,,Mozilla/5.0 (Windows NT 10.0; Win64; x64; rv:90.0) Gecko/20100101 Firefox/90.0,1920,1075,1920,1200,,,,,,,,8,2.44,0.384166667,-0.405833333,1,0,0,next_trial_button,0,38,38,41,1,beach,invisiblesun,yesclouds,5,"1248.4394506866417,500",
,,,,,,,gr,gr,gr,m,23,,2021-08-31_16h09.38.904,online_experiment,2021.1.4,Win32,60.0240096,FALSE,,Mozilla/5.0 (Windows NT 10.0; Win64; x64; rv:90.0) Gecko/20100101 Firefox/90.0,1920,1075,1920,1200,,,,,,,,3,1.66,0.349166667,-0.415833333,1,0,0,next_trial_button,0,39,39,28,1,landscape,invisiblesun,noclouds,3,"888.8888888888888,500",
,,,,,,,gr,gr,gr,m,23,,2021-08-31_16h09.38.904,online_experiment,2021.1.4,Win32,60.0240096,FALSE,,Mozilla/5.0 (Windows NT 10.0; Win64; x64; rv:90.0) Gecko/20100101 Firefox/90.0,1920,1075,1920,1200,,,,,,,,8,2.623,0.339166667,-0.395833333,1,0,0,next_trial_button,0,40,40,51,1,beach,visiblesun,yesclouds,6,"657.1279916753382,500",
,,,,,,,gr,gr,gr,m,23,,2021-08-31_16h09.38.904,online_experiment,2021.1.4,Win32,60.0240096,FALSE,,Mozilla/5.0 (Windows NT 10.0; Win64; x64; rv:90.0) Gecko/20100101 Firefox/90.0,1920,1075,1920,1200,,,,,,,,9,1.797,0.331666667,-0.411666667,1,0,0,next_trial_button,0,41,41,49,1,beach,invisiblesun,yesclouds,6,"858.4474885844749,500",
,,,,,,,gr,gr,gr,m,23,,2021-08-31_16h09.38.904,online_experiment,2021.1.4,Win32,60.0240096,FALSE,,Mozilla/5.0 (Windows NT 10.0; Win64; x64; rv:90.0) Gecko/20100101 Firefox/90.0,1920,1075,1920,1200,,,,,,,,6,2.441,0.388333333,-0.42,1,0,0,next_trial_button,0,42,42,12,1,landscape,invisiblesun,noclouds,1,"666.6666666666666,500",
,,,,,,,gr,gr,gr,m,23,,2021-08-31_16h09.38.904,online_experiment,2021.1.4,Win32,60.0240096,FALSE,,Mozilla/5.0 (Windows NT 10.0; Win64; x64; rv:90.0) Gecko/20100101 Firefox/90.0,1920,1075,1920,1200,,,,,,,,7,3.691,0.351666667,-0.418333333,1,0,0,next_trial_button,0,43,43,14,1,landscape,visiblesun,noclouds,1,"745.9919839679359,500",
,,,,,,,gr,gr,gr,m,23,,2021-08-31_16h09.38.904,online_experiment,2021.1.4,Win32,60.0240096,FALSE,,Mozilla/5.0 (Windows NT 10.0; Win64; x64; rv:90.0) Gecko/20100101 Firefox/90.0,1920,1075,1920,1200,,,,,,,,3,1.859,0.325833333,-0.4,1,0,0,next_trial_button,0,44,44,20,1,landscape,invisiblesun,noclouds,2,"755.192878338279,500",
,,,,,,,gr,gr,gr,m,23,,2021-08-31_16h09.38.904,online_experiment,2021.1.4,Win32,60.0240096,FALSE,,Mozilla/5.0 (Windows NT 10.0; Win64; x64; rv:90.0) Gecko/20100101 Firefox/90.0,1920,1075,1920,1200,,,,,,,,4,1.694,0.3725,-0.408333333,1,0,0,next_trial_button,0,45,45,13,1,landscape,invisiblesun,yesclouds,1,"783.1192660550458,500",
,,,,,,,gr,gr,gr,m,23,,2021-08-31_16h09.38.904,online_experiment,2021.1.4,Win32,60.0240096,FALSE,,Mozilla/5.0 (Windows NT 10.0; Win64; x64; rv:90.0) Gecko/20100101 Firefox/90.0,1920,1075,1920,1200,,,,,,,,6,3.274,0.393333333,-0.4175,1,0,0,next_trial_button,0,46,46,2,1,beach,visiblesun,noclouds,0,"375,500",
,,,,,,,gr,gr,gr,m,23,,2021-08-31_16h09.38.904,online_experiment,2021.1.4,Win32,60.0240096,FALSE,,Mozilla/5.0 (Windows NT 10.0; Win64; x64; rv:90.0) Gecko/20100101 Firefox/90.0,1920,1075,1920,1200,,,,,,,,6,2.39,0.405833333,-0.390833333,1,0,0,next_trial_button,0,47,47,9,1,beach,invisiblesun,yesclouds,1,"750,500",
,,,,,,,gr,gr,gr,m,23,,2021-08-31_16h09.38.904,online_experiment,2021.1.4,Win32,60.0240096,FALSE,,Mozilla/5.0 (Windows NT 10.0; Win64; x64; rv:90.0) Gecko/20100101 Firefox/90.0,1920,1075,1920,1200,,,,,,,,7,1.991,0.345,-0.395833333,1,0,0,next_trial_button,0,48,48,26,1,beach,visiblesun,noclouds,3,"888.8888888888888,500",
,,,,,,,gr,gr,gr,m,23,,2021-08-31_16h09.38.904,online_experiment,2021.1.4,Win32,60.0240096,FALSE,,Mozilla/5.0 (Windows NT 10.0; Win64; x64; rv:90.0) Gecko/20100101 Firefox/90.0,1920,1075,1920,1200,,,,,,,,7,2.543,0.345,-0.381666667,1,0,0,next_trial_button,0,49,49,0,1,beach,invisiblesun,noclouds,0,"750,500",
,,,,,,,gr,gr,gr,m,23,,2021-08-31_16h09.38.904,online_experiment,2021.1.4,Win32,60.0240096,FALSE,,Mozilla/5.0 (Windows NT 10.0; Win64; x64; rv:90.0) Gecko/20100101 Firefox/90.0,1920,1075,1920,1200,,,,,,,,7,2.925,0.31,-0.3975,1,0,0,next_trial_button,0,50,50,53,1,landscape,invisiblesun,yesclouds,6,"750.0695023630803,500",
,,,,,,,gr,gr,gr,m,23,,2021-08-31_16h09.38.904,online_experiment,2021.1.4,Win32,60.0240096,FALSE,,Mozilla/5.0 (Windows NT 10.0; Win64; x64; rv:90.0) Gecko/20100101 Firefox/90.0,1920,1075,1920,1200,,,,,,,,8,3.674,0.3525,-0.401666667,1,0,0,next_trial_button,0,51,51,58,1,beach,visiblesun,noclouds,7,"1028.5714285714284,500",
,,,,,,,gr,gr,gr,m,23,,2021-08-31_16h09.38.904,online_experiment,2021.1.4,Win32,60.0240096,FALSE,,Mozilla/5.0 (Windows NT 10.0; Win64; x64; rv:90.0) Gecko/20100101 Firefox/90.0,1920,1075,1920,1200,,,,,,,,8,2.71,0.3725,-0.4,1,0,0,next_trial_button,0,52,52,66,1,beach,visiblesun,noclouds,8,"1028.5714285714284,500",
,,,,,,,gr,gr,gr,m,23,,2021-08-31_16h09.38.904,online_experiment,2021.1.4,Win32,60.0240096,FALSE,,Mozilla/5.0 (Windows NT 10.0; Win64; x64; rv:90.0) Gecko/20100101 Firefox/90.0,1920,1075,1920,1200,,,,,,,,4,6.309,0.514166667,-0.414166667,1,0,0,next_trial_button,0,53,53,55,1,landscape,visiblesun,yesclouds,6,"749.8819083608881,500",
,,,,,,,gr,gr,gr,m,23,,2021-08-31_16h09.38.904,online_experiment,2021.1.4,Win32,60.0240096,FALSE,,Mozilla/5.0 (Windows NT 10.0; Win64; x64; rv:90.0) Gecko/20100101 Firefox/90.0,1920,1075,1920,1200,,,,,,,,4,1.959,0.385833333,-0.414166667,1,0,0,next_trial_button,0,54,54,31,1,landscape,visiblesun,yesclouds,3,"638.0622837370242,500",
,,,,,,,gr,gr,gr,m,23,,2021-08-31_16h09.38.904,online_experiment,2021.1.4,Win32,60.0240096,FALSE,,Mozilla/5.0 (Windows NT 10.0; Win64; x64; rv:90.0) Gecko/20100101 Firefox/90.0,1920,1075,1920,1200,,,,,,,,7,4.625,0.44,-0.421666667,1,0,0,next_trial_button,0,55,55,47,1,landscape,visiblesun,yesclouds,5,"666.6666666666666,500",
,,,,,,,gr,gr,gr,m,23,,2021-08-31_16h09.38.904,online_experiment,2021.1.4,Win32,60.0240096,FALSE,,Mozilla/5.0 (Windows NT 10.0; Win64; x64; rv:90.0) Gecko/20100101 Firefox/90.0,1920,1075,1920,1200,,,,,,,,4,3.694,0.379166667,-0.41,1,0,0,next_trial_button,0,56,56,60,1,landscape,invisiblesun,noclouds,7,"666.7268134247564,500",
,,,,,,,gr,gr,gr,m,23,,2021-08-31_16h09.38.904,online_experiment,2021.1.4,Win32,60.0240096,FALSE,,Mozilla/5.0 (Windows NT 10.0; Win64; x64; rv:90.0) Gecko/20100101 Firefox/90.0,1920,1075,1920,1200,,,,,,,,2,2.358,0.489166667,-0.3925,1,0,0,next_trial_button,0,57,57,23,1,landscape,visiblesun,yesclouds,2,"767.97829036635,500",
,,,,,,,gr,gr,gr,m,23,,2021-08-31_16h09.38.904,online_experiment,2021.1.4,Win32,60.0240096,FALSE,,Mozilla/5.0 (Windows NT 10.0; Win64; x64; rv:90.0) Gecko/20100101 Firefox/90.0,1920,1075,1920,1200,,,,,,,,1,1.809,0.389166667,-0.4175,1,0,0,next_trial_button,0,58,58,76,1,landscape,invisiblesun,noclouds,9,"1056.6037735849056,500",
,,,,,,,gr,gr,gr,m,23,,2021-08-31_16h09.38.904,online_experiment,2021.1.4,Win32,60.0240096,FALSE,,Mozilla/5.0 (Windows NT 10.0; Win64; x64; rv:90.0) Gecko/20100101 Firefox/90.0,1920,1075,1920,1200,,,,,,,,3,2.626,0.366666667,-0.3925,1,0,0,next_trial_button,0,59,59,54,1,landscape,visiblesun,noclouds,6,"695.0043821209465,500",
,,,,,,,gr,gr,gr,m,23,,2021-08-31_16h09.38.904,online_experiment,2021.1.4,Win32,60.0240096,FALSE,,Mozilla/5.0 (Windows NT 10.0; Win64; x64; rv:90.0) Gecko/20100101 Firefox/90.0,1920,1075,1920,1200,,,,,,,,9,2.794,0.344166667,-0.410833333,1,0,0,next_trial_button,0,60,60,16,1,beach,invisiblesun,noclouds,2,"752.8089887640449,500",
,,,,,,,gr,gr,gr,m,23,,2021-08-31_16h09.38.904,online_experiment,2021.1.4,Win32,60.0240096,FALSE,,Mozilla/5.0 (Windows NT 10.0; Win64; x64; rv:90.0) Gecko/20100101 Firefox/90.0,1920,1075,1920,1200,,,,,,,,9,1.908,0.430833333,-0.400833333,1,0,0,next_trial_button,0,61,61,45,1,landscape,invisiblesun,yesclouds,5,"749.6251874062968,500",
,,,,,,,gr,gr,gr,m,23,,2021-08-31_16h09.38.904,online_experiment,2021.1.4,Win32,60.0240096,FALSE,,Mozilla/5.0 (Windows NT 10.0; Win64; x64; rv:90.0) Gecko/20100101 Firefox/90.0,1920,1075,1920,1200,,,,,,,,3,3.644,0.4175,-0.406666667,1,0,0,next_trial_button,0,62,62,32,1,beach,invisiblesun,noclouds,4,"750,500",
,,,,,,,gr,gr,gr,m,23,,2021-08-31_16h09.38.904,online_experiment,2021.1.4,Win32,60.0240096,FALSE,,Mozilla/5.0 (Windows NT 10.0; Win64; x64; rv:90.0) Gecko/20100101 Firefox/90.0,1920,1075,1920,1200,,,,,,,,3,2.112,0.314166667,-0.399166667,1,0,0,next_trial_button,0,63,63,77,1,landscape,invisiblesun,yesclouds,9,"888.8888888888888,500",
,,,,,,,gr,gr,gr,m,23,,2021-08-31_16h09.38.904,online_experiment,2021.1.4,Win32,60.0240096,FALSE,,Mozilla/5.0 (Windows NT 10.0; Win64; x64; rv:90.0) Gecko/20100101 Firefox/90.0,1920,1075,1920,1200,,,,,,,,4,1.541,0.4225,-0.41,1,0,0,next_trial_button,0,64,64,38,1,landscape,visiblesun,noclouds,4,"733.3333333333333,500",
,,,,,,,gr,gr,gr,m,23,,2021-08-31_16h09.38.904,online_experiment,2021.1.4,Win32,60.0240096,FALSE,,Mozilla/5.0 (Windows NT 10.0; Win64; x64; rv:90.0) Gecko/20100101 Firefox/90.0,1920,1075,1920,1200,,,,,,,,5,1.761,0.334166667,-0.411666667,1,0,0,next_trial_button,0,65,65,75,1,beach,visiblesun,yesclouds,9,"1029.6010296010297,500",
,,,,,,,gr,gr,gr,m,23,,2021-08-31_16h09.38.904,online_experiment,2021.1.4,Win32,60.0240096,FALSE,,Mozilla/5.0 (Windows NT 10.0; Win64; x64; rv:90.0) Gecko/20100101 Firefox/90.0,1920,1075,1920,1200,,,,,,,,4,2.346,0.386666667,-0.418333333,1,0,0,next_trial_button,0,66,66,19,1,beach,visiblesun,yesclouds,2,"770.1393095093882,500",
,,,,,,,gr,gr,gr,m,23,,2021-08-31_16h09.38.904,online_experiment,2021.1.4,Win32,60.0240096,FALSE,,Mozilla/5.0 (Windows NT 10.0; Win64; x64; rv:90.0) Gecko/20100101 Firefox/90.0,1920,1075,1920,1200,,,,,,,,5,2.476,0.423333333,-0.408333333,1,0,0,next_trial_button,0,67,67,15,1,landscape,visiblesun,yesclouds,1,"333.3333333333333,500",
,,,,,,,gr,gr,gr,m,23,,2021-08-31_16h09.38.904,online_experiment,2021.1.4,Win32,60.0240096,FALSE,,Mozilla/5.0 (Windows NT 10.0; Win64; x64; rv:90.0) Gecko/20100101 Firefox/90.0,1920,1075,1920,1200,,,,,,,,7,1.757,0.345833333,-0.410833333,1,0,0,next_trial_button,0,68,68,35,1,beach,visiblesun,yesclouds,4,"750,500",
,,,,,,,gr,gr,gr,m,23,,2021-08-31_16h09.38.904,online_experiment,2021.1.4,Win32,60.0240096,FALSE,,Mozilla/5.0 (Windows NT 10.0; Win64; x64; rv:90.0) Gecko/20100101 Firefox/90.0,1920,1075,1920,1200,,,,,,,,7,2.076,0.360833333,-0.4125,1,0,0,next_trial_button,0,69,69,59,1,beach,visiblesun,yesclouds,7,"888.9689978370584,500",
,,,,,,,gr,gr,gr,m,23,,2021-08-31_16h09.38.904,online_experiment,2021.1.4,Win32,60.0240096,FALSE,,Mozilla/5.0 (Windows NT 10.0; Win64; x64; rv:90.0) Gecko/20100101 Firefox/90.0,1920,1075,1920,1200,,,,,,,,7,1.726,0.376666667,-0.386666667,1,0,0,next_trial_button,0,70,70,10,1,beach,visiblesun,noclouds,1,"747.0261697065821,500",
,,,,,,,gr,gr,gr,m,23,,2021-08-31_16h09.38.904,online_experiment,2021.1.4,Win32,60.0240096,FALSE,,Mozilla/5.0 (Windows NT 10.0; Win64; x64; rv:90.0) Gecko/20100101 Firefox/90.0,1920,1075,1920,1200,,,,,,,,2,3.707,0.413333333,-0.405833333,1,0,0,next_trial_button,0,71,71,25,1,beach,invisiblesun,yesclouds,3,"750.4690431519699,500",
,,,,,,,gr,gr,gr,m,23,,2021-08-31_16h09.38.904,online_experiment,2021.1.4,Win32,60.0240096,FALSE,,Mozilla/5.0 (Windows NT 10.0; Win64; x64; rv:90.0) Gecko/20100101 Firefox/90.0,1920,1075,1920,1200,,,,,,,,4,1.76,0.400833333,-0.41,1,0,0,next_trial_button,0,72,72,40,1,beach,invisiblesun,noclouds,5,"1028.5714285714284,500",
,,,,,,,gr,gr,gr,m,23,,2021-08-31_16h09.38.904,online_experiment,2021.1.4,Win32,60.0240096,FALSE,,Mozilla/5.0 (Windows NT 10.0; Win64; x64; rv:90.0) Gecko/20100101 Firefox/90.0,1920,1075,1920,1200,,,,,,,,1,2.311,0.4175,-0.405833333,1,0,0,next_trial_button,0,73,73,62,1,landscape,visiblesun,noclouds,7,"417.42389822807814,500",
,,,,,,,gr,gr,gr,m,23,,2021-08-31_16h09.38.904,online_experiment,2021.1.4,Win32,60.0240096,FALSE,,Mozilla/5.0 (Windows NT 10.0; Win64; x64; rv:90.0) Gecko/20100101 Firefox/90.0,1920,1075,1920,1200,,,,,,,,7,2.307,0.344166667,-0.405,1,0,0,next_trial_button,0,74,74,67,1,beach,visiblesun,yesclouds,8,"748.1481481481482,500",
,,,,,,,gr,gr,gr,m,23,,2021-08-31_16h09.38.904,online_experiment,2021.1.4,Win32,60.0240096,FALSE,,Mozilla/5.0 (Windows NT 10.0; Win64; x64; rv:90.0) Gecko/20100101 Firefox/90.0,1920,1075,1920,1200,,,,,,,,7,3.609,0.4425,-0.384166667,1,0,0,next_trial_button,0,75,75,74,1,beach,visiblesun,noclouds,9,"1028.5714285714284,500",
,,,,,,,gr,gr,gr,m,23,,2021-08-31_16h09.38.904,online_experiment,2021.1.4,Win32,60.0240096,FALSE,,Mozilla/5.0 (Windows NT 10.0; Win64; x64; rv:90.0) Gecko/20100101 Firefox/90.0,1920,1075,1920,1200,,,,,,,,9,2.838,0.35,-0.415833333,1,0,0,next_trial_button,0,76,76,29,1,landscape,invisiblesun,yesclouds,3,"749.8660953401178,500",
,,,,,,,gr,gr,gr,m,23,,2021-08-31_16h09.38.904,online_experiment,2021.1.4,Win32,60.0240096,FALSE,,Mozilla/5.0 (Windows NT 10.0; Win64; x64; rv:90.0) Gecko/20100101 Firefox/90.0,1920,1075,1920,1200,,,,,,,,7,5.594,0.38,-0.403333333,1,0,0,next_trial_button,0,77,77,8,1,beach,invisiblesun,noclouds,1,"1215.1898734177216,500",
,,,,,,,gr,gr,gr,m,23,,2021-08-31_16h09.38.904,online_experiment,2021.1.4,Win32,60.0240096,FALSE,,Mozilla/5.0 (Windows NT 10.0; Win64; x64; rv:90.0) Gecko/20100101 Firefox/90.0,1920,1075,1920,1200,,,,,,,,7,2.129,0.38,-0.41,1,0,0,next_trial_button,0,78,78,52,1,landscape,invisiblesun,noclouds,6,"666.6666666666666,500",
,,,,,,,gr,gr,gr,m,23,,2021-08-31_16h09.38.904,online_experiment,2021.1.4,Win32,60.0240096,FALSE,,Mozilla/5.0 (Windows NT 10.0; Win64; x64; rv:90.0) Gecko/20100101 Firefox/90.0,1920,1075,1920,1200,,,,,,,,3,2.863,0.370833333,-0.410833333,1,0,0,next_trial_button,0,79,79,69,1,landscape,invisiblesun,yesclouds,8,"750,500",
,,,,,,,gr,gr,gr,m,23,,2021-08-31_16h09.38.904,online_experiment,2021.1.4,Win32,60.0240096,FALSE,,Mozilla/5.0 (Windows NT 10.0; Win64; x64; rv:90.0) Gecko/20100101 Firefox/90.0,1920,1075,1920,1200,,,,,,,,,,,,,,,,,,,,,,,,,"750,500",414.926
