language_mouse.x,language_mouse.y,language_mouse.leftButton,language_mouse.midButton,language_mouse.rightButton,language_mouse.time,language_mouse.clicked_name,nationality,mother_tongue,homeland,gender,age,email,date,expName,psychopyVersion,OS,frameRate,cancel_experiment,cancel_reasons,client_agent_information,windowWidth,windowHeight,xRes,yRes,start_exp_mouse.x,start_exp_mouse.y,start_exp_mouse.leftButton,start_exp_mouse.midButton,start_exp_mouse.rightButton,start_exp_mouse.time,start_exp_mouse.clicked_name,rating_slider.response,rating_slider.rt,next_trial_mouse.x,next_trial_mouse.y,next_trial_mouse.leftButton,next_trial_mouse.midButton,next_trial_mouse.rightButton,next_trial_mouse.clicked_name,trials.thisRepN,trials.thisTrialN,trials.thisN,trials.thisIndex,trials.ran,environment,sunVisibility,cloudVisibility,imageId,imgSize,globalClockTime
-0.325504296,-0.258952114,1,0,0,2.4208,de_flag,de,de,de,m,22,,2021-08-05_16h49.15.886,online_experiment,2021.1.4,MacIntel,60.0024001,FALSE,,"Mozilla/5.0 (Macintosh; Intel Mac OS X 10_15_7) AppleWebKit/537.36 (KHTML, like Gecko) Chrome/92.0.4515.131 Safari/537.36",1680,830,1680,1050,,,,,,,,,,,,,,,,,,,,,,,,,,
,,,,,,,de,de,de,m,22,,2021-08-05_16h49.15.886,online_experiment,2021.1.4,MacIntel,60.0024001,FALSE,,"Mozilla/5.0 (Macintosh; Intel Mac OS X 10_15_7) AppleWebKit/537.36 (KHTML, like Gecko) Chrome/92.0.4515.131 Safari/537.36",1680,830,1680,1050,0.029808117,-0.407046945,1,0,0,4.4839,cont_gr,6,13.5223,0.312054269,-0.424423421,1,0,0,next_trial_button,0,0,0,3,1,beach,visiblesun,yesclouds,0,"1152.5122276567363,500",
,,,,,,,de,de,de,m,22,,2021-08-05_16h49.15.886,online_experiment,2021.1.4,MacIntel,60.0024001,FALSE,,"Mozilla/5.0 (Macintosh; Intel Mac OS X 10_15_7) AppleWebKit/537.36 (KHTML, like Gecko) Chrome/92.0.4515.131 Safari/537.36",1680,830,1680,1050,,,,,,,,3,14.447,0.319351981,-0.40690918,1,0,0,next_trial_button,0,1,1,78,1,landscape,visiblesun,noclouds,9,"666.6666666666666,500",
,,,,,,,de,de,de,m,22,,2021-08-05_16h49.15.886,online_experiment,2021.1.4,MacIntel,60.0024001,FALSE,,"Mozilla/5.0 (Macintosh; Intel Mac OS X 10_15_7) AppleWebKit/537.36 (KHTML, like Gecko) Chrome/92.0.4515.131 Safari/537.36",1680,830,1680,1050,,,,,,,,8,2.6763,0.300856817,-0.422520229,1,0,0,next_trial_button,0,2,2,19,1,beach,visiblesun,yesclouds,2,"770.1393095093882,500",
,,,,,,,de,de,de,m,22,,2021-08-05_16h49.15.886,online_experiment,2021.1.4,MacIntel,60.0024001,FALSE,,"Mozilla/5.0 (Macintosh; Intel Mac OS X 10_15_7) AppleWebKit/537.36 (KHTML, like Gecko) Chrome/92.0.4515.131 Safari/537.36",1680,830,1680,1050,,,,,,,,9,3.3811,0.309521833,-0.429119408,1,0,0,next_trial_button,0,3,3,63,1,landscape,visiblesun,yesclouds,7,"331.94444444444446,500",
,,,,,,,de,de,de,m,22,,2021-08-05_16h49.15.886,online_experiment,2021.1.4,MacIntel,60.0024001,FALSE,,"Mozilla/5.0 (Macintosh; Intel Mac OS X 10_15_7) AppleWebKit/537.36 (KHTML, like Gecko) Chrome/92.0.4515.131 Safari/537.36",1680,830,1680,1050,,,,,,,,6,4.9617,0.382813198,-0.414253162,1,0,0,next_trial_button,0,4,4,71,1,landscape,visiblesun,yesclouds,8,"666.6666666666666,500",
,,,,,,,de,de,de,m,22,,2021-08-05_16h49.15.886,online_experiment,2021.1.4,MacIntel,60.0024001,FALSE,,"Mozilla/5.0 (Macintosh; Intel Mac OS X 10_15_7) AppleWebKit/537.36 (KHTML, like Gecko) Chrome/92.0.4515.131 Safari/537.36",1680,830,1680,1050,,,,,,,,3,4.6082,0.338187663,-0.386182687,1,0,0,next_trial_button,0,5,5,24,1,beach,invisiblesun,noclouds,3,"750.089190153407,500",
,,,,,,,de,de,de,m,22,,2021-08-05_16h49.15.886,online_experiment,2021.1.4,MacIntel,60.0024001,FALSE,,"Mozilla/5.0 (Macintosh; Intel Mac OS X 10_15_7) AppleWebKit/537.36 (KHTML, like Gecko) Chrome/92.0.4515.131 Safari/537.36",1680,830,1680,1050,,,,,,,,2,4.9266,0.363202776,-0.409679478,1,0,0,next_trial_button,0,6,6,42,1,beach,visiblesun,noclouds,5,"834.4594594594595,500",
,,,,,,,de,de,de,m,22,,2021-08-05_16h49.15.886,online_experiment,2021.1.4,MacIntel,60.0024001,FALSE,,"Mozilla/5.0 (Macintosh; Intel Mac OS X 10_15_7) AppleWebKit/537.36 (KHTML, like Gecko) Chrome/92.0.4515.131 Safari/537.36",1680,830,1680,1050,,,,,,,,3,5.9663,0.372857608,-0.415786482,1,0,0,next_trial_button,0,7,7,59,1,beach,visiblesun,yesclouds,7,"888.9689978370584,500",
,,,,,,,de,de,de,m,22,,2021-08-05_16h49.15.886,online_experiment,2021.1.4,MacIntel,60.0024001,FALSE,,"Mozilla/5.0 (Macintosh; Intel Mac OS X 10_15_7) AppleWebKit/537.36 (KHTML, like Gecko) Chrome/92.0.4515.131 Safari/537.36",1680,830,1680,1050,,,,,,,,2,4.4949,0.338318801,-0.42919608,1,0,0,next_trial_button,0,8,8,79,1,landscape,visiblesun,yesclouds,9,"1028.5714285714284,500",
,,,,,,,de,de,de,m,22,,2021-08-05_16h49.15.886,online_experiment,2021.1.4,MacIntel,60.0024001,FALSE,,"Mozilla/5.0 (Macintosh; Intel Mac OS X 10_15_7) AppleWebKit/537.36 (KHTML, like Gecko) Chrome/92.0.4515.131 Safari/537.36",1680,830,1680,1050,,,,,,,,9,7.9647,0.346464844,-0.402149774,1,0,0,next_trial_button,0,9,9,61,1,landscape,invisiblesun,yesclouds,7,"500,500",
,,,,,,,de,de,de,m,22,,2021-08-05_16h49.15.886,online_experiment,2021.1.4,MacIntel,60.0024001,FALSE,,"Mozilla/5.0 (Macintosh; Intel Mac OS X 10_15_7) AppleWebKit/537.36 (KHTML, like Gecko) Chrome/92.0.4515.131 Safari/537.36",1680,830,1680,1050,,,,,,,,5,3.0224,0.400285412,-0.434457833,1,0,0,next_trial_button,0,10,10,11,1,beach,visiblesun,yesclouds,1,"989.8132427843803,500",
,,,,,,,de,de,de,m,22,,2021-08-05_16h49.15.886,online_experiment,2021.1.4,MacIntel,60.0024001,FALSE,,"Mozilla/5.0 (Macintosh; Intel Mac OS X 10_15_7) AppleWebKit/537.36 (KHTML, like Gecko) Chrome/92.0.4515.131 Safari/537.36",1680,830,1680,1050,,,,,,,,2,43.4648,0.37263544,-0.387148379,1,0,0,next_trial_button,0,11,11,31,1,landscape,visiblesun,yesclouds,3,"638.0622837370242,500",
,,,,,,,de,de,de,m,22,,2021-08-05_16h49.15.886,online_experiment,2021.1.4,MacIntel,60.0024001,FALSE,,"Mozilla/5.0 (Macintosh; Intel Mac OS X 10_15_7) AppleWebKit/537.36 (KHTML, like Gecko) Chrome/92.0.4515.131 Safari/537.36",1680,830,1680,1050,,,,,,,,3,17.2001,0.352504418,-0.397762742,1,0,0,next_trial_button,0,12,12,66,1,beach,visiblesun,noclouds,8,"1028.5714285714284,500",
,,,,,,,de,de,de,m,22,,2021-08-05_16h49.15.886,online_experiment,2021.1.4,MacIntel,60.0024001,FALSE,,"Mozilla/5.0 (Macintosh; Intel Mac OS X 10_15_7) AppleWebKit/537.36 (KHTML, like Gecko) Chrome/92.0.4515.131 Safari/537.36",1680,830,1680,1050,,,,,,,,6,8.5326,0.414134928,-0.39170788,1,0,0,next_trial_button,0,13,13,65,1,beach,invisiblesun,yesclouds,8,"750,500",
,,,,,,,de,de,de,m,22,,2021-08-05_16h49.15.886,online_experiment,2021.1.4,MacIntel,60.0024001,FALSE,,"Mozilla/5.0 (Macintosh; Intel Mac OS X 10_15_7) AppleWebKit/537.36 (KHTML, like Gecko) Chrome/92.0.4515.131 Safari/537.36",1680,830,1680,1050,,,,,,,,8,4.9486,0.455655924,-0.395642497,1,0,0,next_trial_button,0,14,14,17,1,beach,invisiblesun,yesclouds,2,"684.8635235732011,500",
,,,,,,,de,de,de,m,22,,2021-08-05_16h49.15.886,online_experiment,2021.1.4,MacIntel,60.0024001,FALSE,,"Mozilla/5.0 (Macintosh; Intel Mac OS X 10_15_7) AppleWebKit/537.36 (KHTML, like Gecko) Chrome/92.0.4515.131 Safari/537.36",1680,830,1680,1050,,,,,,,,2,4.6138,0.360924247,-0.412835286,1,0,0,next_trial_button,0,15,15,34,1,beach,visiblesun,noclouds,4,"749.6251874062968,500",
,,,,,,,de,de,de,m,22,,2021-08-05_16h49.15.886,online_experiment,2021.1.4,MacIntel,60.0024001,FALSE,,"Mozilla/5.0 (Macintosh; Intel Mac OS X 10_15_7) AppleWebKit/537.36 (KHTML, like Gecko) Chrome/92.0.4515.131 Safari/537.36",1680,830,1680,1050,,,,,,,,2,4.1646,0.381783505,-0.405461135,1,0,0,next_trial_button,0,16,16,49,1,beach,invisiblesun,yesclouds,6,"858.4474885844749,500",
,,,,,,,de,de,de,m,22,,2021-08-05_16h49.15.886,online_experiment,2021.1.4,MacIntel,60.0024001,FALSE,,"Mozilla/5.0 (Macintosh; Intel Mac OS X 10_15_7) AppleWebKit/537.36 (KHTML, like Gecko) Chrome/92.0.4515.131 Safari/537.36",1680,830,1680,1050,,,,,,,,4,3.092,0.444335938,-0.455073823,1,0,0,next_trial_button,0,17,17,44,1,landscape,invisiblesun,noclouds,5,"666.6666666666666,500",
,,,,,,,de,de,de,m,22,,2021-08-05_16h49.15.886,online_experiment,2021.1.4,MacIntel,60.0024001,FALSE,,"Mozilla/5.0 (Macintosh; Intel Mac OS X 10_15_7) AppleWebKit/537.36 (KHTML, like Gecko) Chrome/92.0.4515.131 Safari/537.36",1680,830,1680,1050,,,,,,,,2,5.5324,0.39367327,-0.383996408,1,0,0,next_trial_button,0,18,18,13,1,landscape,invisiblesun,yesclouds,1,"783.1192660550458,500",
,,,,,,,de,de,de,m,22,,2021-08-05_16h49.15.886,online_experiment,2021.1.4,MacIntel,60.0024001,FALSE,,"Mozilla/5.0 (Macintosh; Intel Mac OS X 10_15_7) AppleWebKit/537.36 (KHTML, like Gecko) Chrome/92.0.4515.131 Safari/537.36",1680,830,1680,1050,,,,,,,,3,3.2823,0.346508905,-0.429282459,1,0,0,next_trial_button,0,19,19,36,1,landscape,invisiblesun,noclouds,4,"281.25,500",
,,,,,,,de,de,de,m,22,,2021-08-05_16h49.15.886,online_experiment,2021.1.4,MacIntel,60.0024001,FALSE,,"Mozilla/5.0 (Macintosh; Intel Mac OS X 10_15_7) AppleWebKit/537.36 (KHTML, like Gecko) Chrome/92.0.4515.131 Safari/537.36",1680,830,1680,1050,,,,,,,,3,3.7988,0.399744931,-0.425252802,1,0,0,next_trial_button,0,20,20,16,1,beach,invisiblesun,noclouds,2,"752.8089887640449,500",
,,,,,,,de,de,de,m,22,,2021-08-05_16h49.15.886,online_experiment,2021.1.4,MacIntel,60.0024001,FALSE,,"Mozilla/5.0 (Macintosh; Intel Mac OS X 10_15_7) AppleWebKit/537.36 (KHTML, like Gecko) Chrome/92.0.4515.131 Safari/537.36",1680,830,1680,1050,,,,,,,,3,22.511,0.370892392,-0.418836728,1,0,0,next_trial_button,0,21,21,23,1,landscape,visiblesun,yesclouds,2,"767.97829036635,500",
,,,,,,,de,de,de,m,22,,2021-08-05_16h49.15.886,online_experiment,2021.1.4,MacIntel,60.0024001,FALSE,,"Mozilla/5.0 (Macintosh; Intel Mac OS X 10_15_7) AppleWebKit/537.36 (KHTML, like Gecko) Chrome/92.0.4515.131 Safari/537.36",1680,830,1680,1050,,,,,,,,1,2.6575,0.411567848,-0.400704927,1,0,0,next_trial_button,0,22,22,7,1,landscape,visiblesun,yesclouds,0,"743.421052631579,500",
,,,,,,,de,de,de,m,22,,2021-08-05_16h49.15.886,online_experiment,2021.1.4,MacIntel,60.0024001,FALSE,,"Mozilla/5.0 (Macintosh; Intel Mac OS X 10_15_7) AppleWebKit/537.36 (KHTML, like Gecko) Chrome/92.0.4515.131 Safari/537.36",1680,830,1680,1050,,,,,,,,8,3.5422,0.315433757,-0.411725609,1,0,0,next_trial_button,0,23,23,75,1,beach,visiblesun,yesclouds,9,"1029.6010296010297,500",
,,,,,,,de,de,de,m,22,,2021-08-05_16h49.15.886,online_experiment,2021.1.4,MacIntel,60.0024001,FALSE,,"Mozilla/5.0 (Macintosh; Intel Mac OS X 10_15_7) AppleWebKit/537.36 (KHTML, like Gecko) Chrome/92.0.4515.131 Safari/537.36",1680,830,1680,1050,,,,,,,,9,4.2665,0.358044085,-0.400904425,1,0,0,next_trial_button,0,24,24,45,1,landscape,invisiblesun,yesclouds,5,"749.6251874062968,500",
,,,,,,,de,de,de,m,22,,2021-08-05_16h49.15.886,online_experiment,2021.1.4,MacIntel,60.0024001,FALSE,,"Mozilla/5.0 (Macintosh; Intel Mac OS X 10_15_7) AppleWebKit/537.36 (KHTML, like Gecko) Chrome/92.0.4515.131 Safari/537.36",1680,830,1680,1050,,,,,,,,5,3.1312,0.41754627,-0.407076067,1,0,0,next_trial_button,0,25,25,55,1,landscape,visiblesun,yesclouds,6,"749.8819083608881,500",
,,,,,,,de,de,de,m,22,,2021-08-05_16h49.15.886,online_experiment,2021.1.4,MacIntel,60.0024001,FALSE,,"Mozilla/5.0 (Macintosh; Intel Mac OS X 10_15_7) AppleWebKit/537.36 (KHTML, like Gecko) Chrome/92.0.4515.131 Safari/537.36",1680,830,1680,1050,,,,,,,,3,5.9644,0.489827125,-0.423876604,1,0,0,next_trial_button,0,26,26,32,1,beach,invisiblesun,noclouds,4,"750,500",
,,,,,,,de,de,de,m,22,,2021-08-05_16h49.15.886,online_experiment,2021.1.4,MacIntel,60.0024001,FALSE,,"Mozilla/5.0 (Macintosh; Intel Mac OS X 10_15_7) AppleWebKit/537.36 (KHTML, like Gecko) Chrome/92.0.4515.131 Safari/537.36",1680,830,1680,1050,,,,,,,,1,5.8596,0.368456682,-0.439007336,1,0,0,next_trial_button,0,27,27,48,1,beach,invisiblesun,noclouds,6,"1028.5714285714284,500",
,,,,,,,de,de,de,m,22,,2021-08-05_16h49.15.886,online_experiment,2021.1.4,MacIntel,60.0024001,FALSE,,"Mozilla/5.0 (Macintosh; Intel Mac OS X 10_15_7) AppleWebKit/537.36 (KHTML, like Gecko) Chrome/92.0.4515.131 Safari/537.36",1680,830,1680,1050,,,,,,,,7,5.032,0.37117048,-0.445863386,1,0,0,next_trial_button,0,28,28,37,1,landscape,invisiblesun,yesclouds,4,"669.4214876033058,500",
,,,,,,,de,de,de,m,22,,2021-08-05_16h49.15.886,online_experiment,2021.1.4,MacIntel,60.0024001,FALSE,,"Mozilla/5.0 (Macintosh; Intel Mac OS X 10_15_7) AppleWebKit/537.36 (KHTML, like Gecko) Chrome/92.0.4515.131 Safari/537.36",1680,830,1680,1050,,,,,,,,5,2.851,0.330352725,-0.441737467,1,0,0,next_trial_button,0,29,29,6,1,landscape,visiblesun,noclouds,0,"1413.8005159071367,500",
,,,,,,,de,de,de,m,22,,2021-08-05_16h49.15.886,online_experiment,2021.1.4,MacIntel,60.0024001,FALSE,,"Mozilla/5.0 (Macintosh; Intel Mac OS X 10_15_7) AppleWebKit/537.36 (KHTML, like Gecko) Chrome/92.0.4515.131 Safari/537.36",1680,830,1680,1050,,,,,,,,4,1.7445,0.441715262,-0.429498,1,0,0,next_trial_button,0,30,30,18,1,beach,visiblesun,noclouds,2,"666.6666666666666,500",
,,,,,,,de,de,de,m,22,,2021-08-05_16h49.15.886,online_experiment,2021.1.4,MacIntel,60.0024001,FALSE,,"Mozilla/5.0 (Macintosh; Intel Mac OS X 10_15_7) AppleWebKit/537.36 (KHTML, like Gecko) Chrome/92.0.4515.131 Safari/537.36",1680,830,1680,1050,,,,,,,,6,5.0146,0.371263718,-0.442497965,1,0,0,next_trial_button,0,31,31,1,1,beach,invisiblesun,yesclouds,0,"666.6666666666666,500",
,,,,,,,de,de,de,m,22,,2021-08-05_16h49.15.886,online_experiment,2021.1.4,MacIntel,60.0024001,FALSE,,"Mozilla/5.0 (Macintosh; Intel Mac OS X 10_15_7) AppleWebKit/537.36 (KHTML, like Gecko) Chrome/92.0.4515.131 Safari/537.36",1680,830,1680,1050,,,,,,,,7,3.3992,0.377142973,-0.415980399,1,0,0,next_trial_button,0,32,32,41,1,beach,invisiblesun,yesclouds,5,"1248.4394506866417,500",
,,,,,,,de,de,de,m,22,,2021-08-05_16h49.15.886,online_experiment,2021.1.4,MacIntel,60.0024001,FALSE,,"Mozilla/5.0 (Macintosh; Intel Mac OS X 10_15_7) AppleWebKit/537.36 (KHTML, like Gecko) Chrome/92.0.4515.131 Safari/537.36",1680,830,1680,1050,,,,,,,,9,1.9661,0.389176316,-0.412311954,1,0,0,next_trial_button,0,33,33,27,1,beach,visiblesun,yesclouds,3,"752.8089887640449,500",
,,,,,,,de,de,de,m,22,,2021-08-05_16h49.15.886,online_experiment,2021.1.4,MacIntel,60.0024001,FALSE,,"Mozilla/5.0 (Macintosh; Intel Mac OS X 10_15_7) AppleWebKit/537.36 (KHTML, like Gecko) Chrome/92.0.4515.131 Safari/537.36",1680,830,1680,1050,,,,,,,,4,4.391,0.375743234,-0.433801676,1,0,0,next_trial_button,0,34,34,8,1,beach,invisiblesun,noclouds,1,"1215.1898734177216,500",
,,,,,,,de,de,de,m,22,,2021-08-05_16h49.15.886,online_experiment,2021.1.4,MacIntel,60.0024001,FALSE,,"Mozilla/5.0 (Macintosh; Intel Mac OS X 10_15_7) AppleWebKit/537.36 (KHTML, like Gecko) Chrome/92.0.4515.131 Safari/537.36",1680,830,1680,1050,,,,,,,,3,2.2975,0.417145066,-0.388758545,1,0,0,next_trial_button,0,35,35,35,1,beach,visiblesun,yesclouds,4,"750,500",
,,,,,,,de,de,de,m,22,,2021-08-05_16h49.15.886,online_experiment,2021.1.4,MacIntel,60.0024001,FALSE,,"Mozilla/5.0 (Macintosh; Intel Mac OS X 10_15_7) AppleWebKit/537.36 (KHTML, like Gecko) Chrome/92.0.4515.131 Safari/537.36",1680,830,1680,1050,,,,,,,,2,2.5823,0.365601981,-0.416344982,1,0,0,next_trial_button,0,36,36,40,1,beach,invisiblesun,noclouds,5,"1028.5714285714284,500",
,,,,,,,de,de,de,m,22,,2021-08-05_16h49.15.886,online_experiment,2021.1.4,MacIntel,60.0024001,FALSE,,"Mozilla/5.0 (Macintosh; Intel Mac OS X 10_15_7) AppleWebKit/537.36 (KHTML, like Gecko) Chrome/92.0.4515.131 Safari/537.36",1680,830,1680,1050,,,,,,,,7,2.4487,0.337390834,-0.414447719,1,0,0,next_trial_button,0,37,37,20,1,landscape,invisiblesun,noclouds,2,"755.192878338279,500",
,,,,,,,de,de,de,m,22,,2021-08-05_16h49.15.886,online_experiment,2021.1.4,MacIntel,60.0024001,FALSE,,"Mozilla/5.0 (Macintosh; Intel Mac OS X 10_15_7) AppleWebKit/537.36 (KHTML, like Gecko) Chrome/92.0.4515.131 Safari/537.36",1680,830,1680,1050,,,,,,,,8,2.8473,0.350491769,-0.410691267,1,0,0,next_trial_button,0,38,38,73,1,beach,invisiblesun,yesclouds,9,"1028.5714285714284,500",
,,,,,,,de,de,de,m,22,,2021-08-05_16h49.15.886,online_experiment,2021.1.4,MacIntel,60.0024001,FALSE,,"Mozilla/5.0 (Macintosh; Intel Mac OS X 10_15_7) AppleWebKit/537.36 (KHTML, like Gecko) Chrome/92.0.4515.131 Safari/537.36",1680,830,1680,1050,,,,,,,,6,2.2644,0.361427176,-0.394284435,1,0,0,next_trial_button,0,39,39,46,1,landscape,visiblesun,noclouds,5,"750,500",
,,,,,,,de,de,de,m,22,,2021-08-05_16h49.15.886,online_experiment,2021.1.4,MacIntel,60.0024001,FALSE,,"Mozilla/5.0 (Macintosh; Intel Mac OS X 10_15_7) AppleWebKit/537.36 (KHTML, like Gecko) Chrome/92.0.4515.131 Safari/537.36",1680,830,1680,1050,,,,,,,,9,2.1814,0.385087193,-0.412690313,1,0,0,next_trial_button,0,40,40,14,1,landscape,visiblesun,noclouds,1,"745.9919839679359,500",
,,,,,,,de,de,de,m,22,,2021-08-05_16h49.15.886,online_experiment,2021.1.4,MacIntel,60.0024001,FALSE,,"Mozilla/5.0 (Macintosh; Intel Mac OS X 10_15_7) AppleWebKit/537.36 (KHTML, like Gecko) Chrome/92.0.4515.131 Safari/537.36",1680,830,1680,1050,,,,,,,,9,2.7802,0.404882115,-0.436449149,1,0,0,next_trial_button,0,41,41,53,1,landscape,invisiblesun,yesclouds,6,"750.0695023630803,500",
,,,,,,,de,de,de,m,22,,2021-08-05_16h49.15.886,online_experiment,2021.1.4,MacIntel,60.0024001,FALSE,,"Mozilla/5.0 (Macintosh; Intel Mac OS X 10_15_7) AppleWebKit/537.36 (KHTML, like Gecko) Chrome/92.0.4515.131 Safari/537.36",1680,830,1680,1050,,,,,,,,4,2.0144,0.329331636,-0.388731341,1,0,0,next_trial_button,0,42,42,0,1,beach,invisiblesun,noclouds,0,"750,500",
,,,,,,,de,de,de,m,22,,2021-08-05_16h49.15.886,online_experiment,2021.1.4,MacIntel,60.0024001,FALSE,,"Mozilla/5.0 (Macintosh; Intel Mac OS X 10_15_7) AppleWebKit/537.36 (KHTML, like Gecko) Chrome/92.0.4515.131 Safari/537.36",1680,830,1680,1050,,,,,,,,7,2.86,0.410872396,-0.407725656,1,0,0,next_trial_button,0,43,43,74,1,beach,visiblesun,noclouds,9,"1028.5714285714284,500",
,,,,,,,de,de,de,m,22,,2021-08-05_16h49.15.886,online_experiment,2021.1.4,MacIntel,60.0024001,FALSE,,"Mozilla/5.0 (Macintosh; Intel Mac OS X 10_15_7) AppleWebKit/537.36 (KHTML, like Gecko) Chrome/92.0.4515.131 Safari/537.36",1680,830,1680,1050,,,,,,,,6,8.3979,0.376523321,-0.41565139,1,0,0,next_trial_button,0,44,44,72,1,beach,invisiblesun,noclouds,9,"888.8888888888888,500",
,,,,,,,de,de,de,m,22,,2021-08-05_16h49.15.886,online_experiment,2021.1.4,MacIntel,60.0024001,FALSE,,"Mozilla/5.0 (Macintosh; Intel Mac OS X 10_15_7) AppleWebKit/537.36 (KHTML, like Gecko) Chrome/92.0.4515.131 Safari/537.36",1680,830,1680,1050,,,,,,,,3,2.5598,0.459637858,-0.414055931,1,0,0,next_trial_button,0,45,45,62,1,landscape,visiblesun,noclouds,7,"417.42389822807814,500",
,,,,,,,de,de,de,m,22,,2021-08-05_16h49.15.886,online_experiment,2021.1.4,MacIntel,60.0024001,FALSE,,"Mozilla/5.0 (Macintosh; Intel Mac OS X 10_15_7) AppleWebKit/537.36 (KHTML, like Gecko) Chrome/92.0.4515.131 Safari/537.36",1680,830,1680,1050,,,,,,,,6,2.4803,0.358770461,-0.41831293,1,0,0,next_trial_button,0,46,46,33,1,beach,invisiblesun,yesclouds,4,"751.5473032714411,500",
,,,,,,,de,de,de,m,22,,2021-08-05_16h49.15.886,online_experiment,2021.1.4,MacIntel,60.0024001,FALSE,,"Mozilla/5.0 (Macintosh; Intel Mac OS X 10_15_7) AppleWebKit/537.36 (KHTML, like Gecko) Chrome/92.0.4515.131 Safari/537.36",1680,830,1680,1050,,,,,,,,3,2.6621,0.351947661,-0.420924421,1,0,0,next_trial_button,0,47,47,70,1,landscape,visiblesun,noclouds,8,"666.6666666666666,500",
,,,,,,,de,de,de,m,22,,2021-08-05_16h49.15.886,online_experiment,2021.1.4,MacIntel,60.0024001,FALSE,,"Mozilla/5.0 (Macintosh; Intel Mac OS X 10_15_7) AppleWebKit/537.36 (KHTML, like Gecko) Chrome/92.0.4515.131 Safari/537.36",1680,830,1680,1050,,,,,,,,3,3.5305,0.53005964,-0.438693615,1,0,0,next_trial_button,0,48,48,56,1,beach,invisiblesun,noclouds,7,"1028.5714285714284,500",
,,,,,,,de,de,de,m,22,,2021-08-05_16h49.15.886,online_experiment,2021.1.4,MacIntel,60.0024001,FALSE,,"Mozilla/5.0 (Macintosh; Intel Mac OS X 10_15_7) AppleWebKit/537.36 (KHTML, like Gecko) Chrome/92.0.4515.131 Safari/537.36",1680,830,1680,1050,,,,,,,,1,1.7631,0.337775879,-0.419696568,1,0,0,next_trial_button,0,49,49,28,1,landscape,invisiblesun,noclouds,3,"888.8888888888888,500",
,,,,,,,de,de,de,m,22,,2021-08-05_16h49.15.886,online_experiment,2021.1.4,MacIntel,60.0024001,FALSE,,"Mozilla/5.0 (Macintosh; Intel Mac OS X 10_15_7) AppleWebKit/537.36 (KHTML, like Gecko) Chrome/92.0.4515.131 Safari/537.36",1680,830,1680,1050,,,,,,,,7,2.7984,0.349627976,-0.434378488,1,0,0,next_trial_button,0,50,50,58,1,beach,visiblesun,noclouds,7,"1028.5714285714284,500",
,,,,,,,de,de,de,m,22,,2021-08-05_16h49.15.886,online_experiment,2021.1.4,MacIntel,60.0024001,FALSE,,"Mozilla/5.0 (Macintosh; Intel Mac OS X 10_15_7) AppleWebKit/537.36 (KHTML, like Gecko) Chrome/92.0.4515.131 Safari/537.36",1680,830,1680,1050,,,,,,,,9,3.2002,0.358861026,-0.420718994,1,0,0,next_trial_button,0,51,51,4,1,landscape,invisiblesun,noclouds,0,"1276.9171185127807,500",
,,,,,,,de,de,de,m,22,,2021-08-05_16h49.15.886,online_experiment,2021.1.4,MacIntel,60.0024001,FALSE,,"Mozilla/5.0 (Macintosh; Intel Mac OS X 10_15_7) AppleWebKit/537.36 (KHTML, like Gecko) Chrome/92.0.4515.131 Safari/537.36",1680,830,1680,1050,,,,,,,,9,2.6514,0.386998117,-0.422683803,1,0,0,next_trial_button,0,52,52,69,1,landscape,invisiblesun,yesclouds,8,"750,500",
,,,,,,,de,de,de,m,22,,2021-08-05_16h49.15.886,online_experiment,2021.1.4,MacIntel,60.0024001,FALSE,,"Mozilla/5.0 (Macintosh; Intel Mac OS X 10_15_7) AppleWebKit/537.36 (KHTML, like Gecko) Chrome/92.0.4515.131 Safari/537.36",1680,830,1680,1050,,,,,,,,4,6.0293,0.347918643,-0.397928467,1,0,0,next_trial_button,0,53,53,57,1,beach,invisiblesun,yesclouds,7,"749.707488299532,500",
,,,,,,,de,de,de,m,22,,2021-08-05_16h49.15.886,online_experiment,2021.1.4,MacIntel,60.0024001,FALSE,,"Mozilla/5.0 (Macintosh; Intel Mac OS X 10_15_7) AppleWebKit/537.36 (KHTML, like Gecko) Chrome/92.0.4515.131 Safari/537.36",1680,830,1680,1050,,,,,,,,4,2.2006,0.332543364,-0.404281297,1,0,0,next_trial_button,0,54,54,26,1,beach,visiblesun,noclouds,3,"888.8888888888888,500",
,,,,,,,de,de,de,m,22,,2021-08-05_16h49.15.886,online_experiment,2021.1.4,MacIntel,60.0024001,FALSE,,"Mozilla/5.0 (Macintosh; Intel Mac OS X 10_15_7) AppleWebKit/537.36 (KHTML, like Gecko) Chrome/92.0.4515.131 Safari/537.36",1680,830,1680,1050,,,,,,,,6,2.33,0.406269066,-0.396601446,1,0,0,next_trial_button,0,55,55,38,1,landscape,visiblesun,noclouds,4,"733.3333333333333,500",
,,,,,,,de,de,de,m,22,,2021-08-05_16h49.15.886,online_experiment,2021.1.4,MacIntel,60.0024001,FALSE,,"Mozilla/5.0 (Macintosh; Intel Mac OS X 10_15_7) AppleWebKit/537.36 (KHTML, like Gecko) Chrome/92.0.4515.131 Safari/537.36",1680,830,1680,1050,,,,,,,,3,1.914,0.379394182,-0.436889823,1,0,0,next_trial_button,0,56,56,30,1,landscape,visiblesun,noclouds,3,"346.3035019455253,500",
,,,,,,,de,de,de,m,22,,2021-08-05_16h49.15.886,online_experiment,2021.1.4,MacIntel,60.0024001,FALSE,,"Mozilla/5.0 (Macintosh; Intel Mac OS X 10_15_7) AppleWebKit/537.36 (KHTML, like Gecko) Chrome/92.0.4515.131 Safari/537.36",1680,830,1680,1050,,,,,,,,1,2.633,0.384892462,-0.406599761,1,0,0,next_trial_button,0,57,57,76,1,landscape,invisiblesun,noclouds,9,"1056.6037735849056,500",
,,,,,,,de,de,de,m,22,,2021-08-05_16h49.15.886,online_experiment,2021.1.4,MacIntel,60.0024001,FALSE,,"Mozilla/5.0 (Macintosh; Intel Mac OS X 10_15_7) AppleWebKit/537.36 (KHTML, like Gecko) Chrome/92.0.4515.131 Safari/537.36",1680,830,1680,1050,,,,,,,,3,5.8085,0.357748442,-0.409337623,1,0,0,next_trial_button,0,58,58,10,1,beach,visiblesun,noclouds,1,"747.0261697065821,500",
,,,,,,,de,de,de,m,22,,2021-08-05_16h49.15.886,online_experiment,2021.1.4,MacIntel,60.0024001,FALSE,,"Mozilla/5.0 (Macintosh; Intel Mac OS X 10_15_7) AppleWebKit/537.36 (KHTML, like Gecko) Chrome/92.0.4515.131 Safari/537.36",1680,830,1680,1050,,,,,,,,7,3.4986,0.312810407,-0.416510126,1,0,0,next_trial_button,0,59,59,22,1,landscape,visiblesun,noclouds,2,"749.3333333333333,500",
,,,,,,,de,de,de,m,22,,2021-08-05_16h49.15.886,online_experiment,2021.1.4,MacIntel,60.0024001,FALSE,,"Mozilla/5.0 (Macintosh; Intel Mac OS X 10_15_7) AppleWebKit/537.36 (KHTML, like Gecko) Chrome/92.0.4515.131 Safari/537.36",1680,830,1680,1050,,,,,,,,2,3.3309,0.359396043,-0.407317708,1,0,0,next_trial_button,0,60,60,39,1,landscape,visiblesun,yesclouds,4,"749.7656982193065,500",
,,,,,,,de,de,de,m,22,,2021-08-05_16h49.15.886,online_experiment,2021.1.4,MacIntel,60.0024001,FALSE,,"Mozilla/5.0 (Macintosh; Intel Mac OS X 10_15_7) AppleWebKit/537.36 (KHTML, like Gecko) Chrome/92.0.4515.131 Safari/537.36",1680,830,1680,1050,,,,,,,,9,11.0743,0.350327265,-0.40970116,1,0,0,next_trial_button,0,61,61,29,1,landscape,invisiblesun,yesclouds,3,"749.8660953401178,500",
,,,,,,,de,de,de,m,22,,2021-08-05_16h49.15.886,online_experiment,2021.1.4,MacIntel,60.0024001,FALSE,,"Mozilla/5.0 (Macintosh; Intel Mac OS X 10_15_7) AppleWebKit/537.36 (KHTML, like Gecko) Chrome/92.0.4515.131 Safari/537.36",1680,830,1680,1050,,,,,,,,7,4.4987,0.372949916,-0.416458856,1,0,0,next_trial_button,0,62,62,9,1,beach,invisiblesun,yesclouds,1,"750,500",
,,,,,,,de,de,de,m,22,,2021-08-05_16h49.15.886,online_experiment,2021.1.4,MacIntel,60.0024001,FALSE,,"Mozilla/5.0 (Macintosh; Intel Mac OS X 10_15_7) AppleWebKit/537.36 (KHTML, like Gecko) Chrome/92.0.4515.131 Safari/537.36",1680,830,1680,1050,,,,,,,,2,2.664,0.340863211,-0.387724028,1,0,0,next_trial_button,0,63,63,60,1,landscape,invisiblesun,noclouds,7,"666.7268134247564,500",
,,,,,,,de,de,de,m,22,,2021-08-05_16h49.15.886,online_experiment,2021.1.4,MacIntel,60.0024001,FALSE,,"Mozilla/5.0 (Macintosh; Intel Mac OS X 10_15_7) AppleWebKit/537.36 (KHTML, like Gecko) Chrome/92.0.4515.131 Safari/537.36",1680,830,1680,1050,,,,,,,,4,4.8118,0.40133045,-0.401736189,1,0,0,next_trial_button,0,64,64,51,1,beach,visiblesun,yesclouds,6,"657.1279916753382,500",
,,,,,,,de,de,de,m,22,,2021-08-05_16h49.15.886,online_experiment,2021.1.4,MacIntel,60.0024001,FALSE,,"Mozilla/5.0 (Macintosh; Intel Mac OS X 10_15_7) AppleWebKit/537.36 (KHTML, like Gecko) Chrome/92.0.4515.131 Safari/537.36",1680,830,1680,1050,,,,,,,,2,1.8149,0.415868676,-0.405663888,1,0,0,next_trial_button,0,65,65,47,1,landscape,visiblesun,yesclouds,5,"666.6666666666666,500",
,,,,,,,de,de,de,m,22,,2021-08-05_16h49.15.886,online_experiment,2021.1.4,MacIntel,60.0024001,FALSE,,"Mozilla/5.0 (Macintosh; Intel Mac OS X 10_15_7) AppleWebKit/537.36 (KHTML, like Gecko) Chrome/92.0.4515.131 Safari/537.36",1680,830,1680,1050,,,,,,,,4,4.6987,0.34297433,-0.393879685,1,0,0,next_trial_button,0,66,66,43,1,beach,visiblesun,yesclouds,5,"750,500",
,,,,,,,de,de,de,m,22,,2021-08-05_16h49.15.886,online_experiment,2021.1.4,MacIntel,60.0024001,FALSE,,"Mozilla/5.0 (Macintosh; Intel Mac OS X 10_15_7) AppleWebKit/537.36 (KHTML, like Gecko) Chrome/92.0.4515.131 Safari/537.36",1680,830,1680,1050,,,,,,,,4,2.0632,0.341152344,-0.399104992,1,0,0,next_trial_button,0,67,67,2,1,beach,visiblesun,noclouds,0,"375,500",
,,,,,,,de,de,de,m,22,,2021-08-05_16h49.15.886,online_experiment,2021.1.4,MacIntel,60.0024001,FALSE,,"Mozilla/5.0 (Macintosh; Intel Mac OS X 10_15_7) AppleWebKit/537.36 (KHTML, like Gecko) Chrome/92.0.4515.131 Safari/537.36",1680,830,1680,1050,,,,,,,,4,4.9484,0.333687221,-0.410903262,1,0,0,next_trial_button,0,68,68,67,1,beach,visiblesun,yesclouds,8,"748.1481481481482,500",
,,,,,,,de,de,de,m,22,,2021-08-05_16h49.15.886,online_experiment,2021.1.4,MacIntel,60.0024001,FALSE,,"Mozilla/5.0 (Macintosh; Intel Mac OS X 10_15_7) AppleWebKit/537.36 (KHTML, like Gecko) Chrome/92.0.4515.131 Safari/537.36",1680,830,1680,1050,,,,,,,,1,4.8301,0.377714844,-0.386463856,1,0,0,next_trial_button,0,69,69,68,1,landscape,invisiblesun,noclouds,8,"666.6666666666666,500",
,,,,,,,de,de,de,m,22,,2021-08-05_16h49.15.886,online_experiment,2021.1.4,MacIntel,60.0024001,FALSE,,"Mozilla/5.0 (Macintosh; Intel Mac OS X 10_15_7) AppleWebKit/537.36 (KHTML, like Gecko) Chrome/92.0.4515.131 Safari/537.36",1680,830,1680,1050,,,,,,,,4,2.4299,0.395846935,-0.408130057,1,0,0,next_trial_button,0,70,70,25,1,beach,invisiblesun,yesclouds,3,"750.4690431519699,500",
,,,,,,,de,de,de,m,22,,2021-08-05_16h49.15.886,online_experiment,2021.1.4,MacIntel,60.0024001,FALSE,,"Mozilla/5.0 (Macintosh; Intel Mac OS X 10_15_7) AppleWebKit/537.36 (KHTML, like Gecko) Chrome/92.0.4515.131 Safari/537.36",1680,830,1680,1050,,,,,,,,5,2.5076,0.382188198,-0.401428513,1,0,0,next_trial_button,0,71,71,21,1,landscape,invisiblesun,yesclouds,2,"750,500",
,,,,,,,de,de,de,m,22,,2021-08-05_16h49.15.886,online_experiment,2021.1.4,MacIntel,60.0024001,FALSE,,"Mozilla/5.0 (Macintosh; Intel Mac OS X 10_15_7) AppleWebKit/537.36 (KHTML, like Gecko) Chrome/92.0.4515.131 Safari/537.36",1680,830,1680,1050,,,,,,,,6,2.5636,0.346977539,-0.408286598,1,0,0,next_trial_button,0,72,72,54,1,landscape,visiblesun,noclouds,6,"695.0043821209465,500",
,,,,,,,de,de,de,m,22,,2021-08-05_16h49.15.886,online_experiment,2021.1.4,MacIntel,60.0024001,FALSE,,"Mozilla/5.0 (Macintosh; Intel Mac OS X 10_15_7) AppleWebKit/537.36 (KHTML, like Gecko) Chrome/92.0.4515.131 Safari/537.36",1680,830,1680,1050,,,,,,,,2,2.1482,0.351927083,-0.371593076,1,0,0,next_trial_button,0,73,73,12,1,landscape,invisiblesun,noclouds,1,"666.6666666666666,500",
,,,,,,,de,de,de,m,22,,2021-08-05_16h49.15.886,online_experiment,2021.1.4,MacIntel,60.0024001,FALSE,,"Mozilla/5.0 (Macintosh; Intel Mac OS X 10_15_7) AppleWebKit/537.36 (KHTML, like Gecko) Chrome/92.0.4515.131 Safari/537.36",1680,830,1680,1050,,,,,,,,2,4.9642,0.427459891,-0.394937221,1,0,0,next_trial_button,0,74,74,5,1,landscape,invisiblesun,yesclouds,0,"750.4690431519699,500",
,,,,,,,de,de,de,m,22,,2021-08-05_16h49.15.886,online_experiment,2021.1.4,MacIntel,60.0024001,FALSE,,"Mozilla/5.0 (Macintosh; Intel Mac OS X 10_15_7) AppleWebKit/537.36 (KHTML, like Gecko) Chrome/92.0.4515.131 Safari/537.36",1680,830,1680,1050,,,,,,,,7,4.5805,0.440834845,-0.434549386,1,0,0,next_trial_button,0,75,75,15,1,landscape,visiblesun,yesclouds,1,"333.3333333333333,500",
,,,,,,,de,de,de,m,22,,2021-08-05_16h49.15.886,online_experiment,2021.1.4,MacIntel,60.0024001,FALSE,,"Mozilla/5.0 (Macintosh; Intel Mac OS X 10_15_7) AppleWebKit/537.36 (KHTML, like Gecko) Chrome/92.0.4515.131 Safari/537.36",1680,830,1680,1050,,,,,,,,1,1.8307,0.331052827,-0.403843645,1,0,0,next_trial_button,0,76,76,52,1,landscape,invisiblesun,noclouds,6,"666.6666666666666,500",
,,,,,,,de,de,de,m,22,,2021-08-05_16h49.15.886,online_experiment,2021.1.4,MacIntel,60.0024001,FALSE,,"Mozilla/5.0 (Macintosh; Intel Mac OS X 10_15_7) AppleWebKit/537.36 (KHTML, like Gecko) Chrome/92.0.4515.131 Safari/537.36",1680,830,1680,1050,,,,,,,,3,2.7159,0.314001697,-0.426683175,1,0,0,next_trial_button,0,77,77,64,1,beach,invisiblesun,noclouds,8,"1028.5714285714284,500",
,,,,,,,de,de,de,m,22,,2021-08-05_16h49.15.886,online_experiment,2021.1.4,MacIntel,60.0024001,FALSE,,"Mozilla/5.0 (Macintosh; Intel Mac OS X 10_15_7) AppleWebKit/537.36 (KHTML, like Gecko) Chrome/92.0.4515.131 Safari/537.36",1680,830,1680,1050,,,,,,,,2,3.0495,0.502871326,-0.418827369,1,0,0,next_trial_button,0,78,78,77,1,landscape,invisiblesun,yesclouds,9,"888.8888888888888,500",
,,,,,,,de,de,de,m,22,,2021-08-05_16h49.15.886,online_experiment,2021.1.4,MacIntel,60.0024001,FALSE,,"Mozilla/5.0 (Macintosh; Intel Mac OS X 10_15_7) AppleWebKit/537.36 (KHTML, like Gecko) Chrome/92.0.4515.131 Safari/537.36",1680,830,1680,1050,,,,,,,,4,1.764,0.388803013,-0.431714565,1,0,0,next_trial_button,0,79,79,50,1,beach,visiblesun,noclouds,6,"666.6666666666666,500",
,,,,,,,de,de,de,m,22,,2021-08-05_16h49.15.886,online_experiment,2021.1.4,MacIntel,60.0024001,FALSE,,"Mozilla/5.0 (Macintosh; Intel Mac OS X 10_15_7) AppleWebKit/537.36 (KHTML, like Gecko) Chrome/92.0.4515.131 Safari/537.36",1680,830,1680,1050,,,,,,,,,,,,,,,,,,,,,,,,,"666.6666666666666,500",580.2016
