language_mouse.x,language_mouse.y,language_mouse.leftButton,language_mouse.midButton,language_mouse.rightButton,language_mouse.time,language_mouse.clicked_name,nationality,mother_tongue,homeland,gender,age,email,date,expName,psychopyVersion,OS,frameRate,fbclid,cancel_experiment,cancel_reasons,client_agent_information,windowWidth,windowHeight,xRes,yRes,start_exp_mouse.x,start_exp_mouse.y,start_exp_mouse.leftButton,start_exp_mouse.midButton,start_exp_mouse.rightButton,start_exp_mouse.time,start_exp_mouse.clicked_name,rating_slider.response,rating_slider.rt,next_trial_mouse.x,next_trial_mouse.y,next_trial_mouse.leftButton,next_trial_mouse.midButton,next_trial_mouse.rightButton,next_trial_mouse.clicked_name,trials.thisRepN,trials.thisTrialN,trials.thisN,trials.thisIndex,trials.ran,environment,sunVisibility,cloudVisibility,imageId,imgSize,globalClockTime
0.35185187,-0.237037048,1,0,0,11.9324,gr_flag,gr,gr,gr,f,20,,2021-08-25_11h14.02.806,online_experiment,2021.1.4,Win32,60.08171113,IwAR0XODgFFzx-56_FZQN_QVVo5iE6vyr3Hpqwly27Ch-nEJS--suRHHQX3Vw,FALSE,,"Mozilla/5.0 (Windows NT 10.0; Win64; x64) AppleWebKit/537.36 (KHTML, like Gecko) Chrome/92.0.4515.131 Safari/537.36",1536,722,1536,864,,,,,,,,,,,,,,,,,,,,,,,,,,
,,,,,,,gr,gr,gr,f,20,,2021-08-25_11h14.02.806,online_experiment,2021.1.4,Win32,60.08171113,IwAR0XODgFFzx-56_FZQN_QVVo5iE6vyr3Hpqwly27Ch-nEJS--suRHHQX3Vw,FALSE,,"Mozilla/5.0 (Windows NT 10.0; Win64; x64) AppleWebKit/537.36 (KHTML, like Gecko) Chrome/92.0.4515.131 Safari/537.36",1536,722,1536,864,-0.021296227,-0.410185199,1,0,0,11.6999,cont_gr,3,10.6243,0.397222354,-0.402777791,1,0,0,next_trial_button,0,0,0,52,1,landscape,invisiblesun,noclouds,6,"666.6666666666666,500",
,,,,,,,gr,gr,gr,f,20,,2021-08-25_11h14.02.806,online_experiment,2021.1.4,Win32,60.08171113,IwAR0XODgFFzx-56_FZQN_QVVo5iE6vyr3Hpqwly27Ch-nEJS--suRHHQX3Vw,FALSE,,"Mozilla/5.0 (Windows NT 10.0; Win64; x64) AppleWebKit/537.36 (KHTML, like Gecko) Chrome/92.0.4515.131 Safari/537.36",1536,722,1536,864,,,,,,,,10,5.7704,0.399074093,-0.426851866,1,0,0,next_trial_button,0,1,1,14,1,landscape,visiblesun,noclouds,1,"745.9919839679359,500",
,,,,,,,gr,gr,gr,f,20,,2021-08-25_11h14.02.806,online_experiment,2021.1.4,Win32,60.08171113,IwAR0XODgFFzx-56_FZQN_QVVo5iE6vyr3Hpqwly27Ch-nEJS--suRHHQX3Vw,FALSE,,"Mozilla/5.0 (Windows NT 10.0; Win64; x64) AppleWebKit/537.36 (KHTML, like Gecko) Chrome/92.0.4515.131 Safari/537.36",1536,722,1536,864,,,,,,,,5,8.3562,0.346296428,-0.434259273,1,0,0,next_trial_button,0,2,2,24,1,beach,invisiblesun,noclouds,3,"750.089190153407,500",
,,,,,,,gr,gr,gr,f,20,,2021-08-25_11h14.02.806,online_experiment,2021.1.4,Win32,60.08171113,IwAR0XODgFFzx-56_FZQN_QVVo5iE6vyr3Hpqwly27Ch-nEJS--suRHHQX3Vw,FALSE,,"Mozilla/5.0 (Windows NT 10.0; Win64; x64) AppleWebKit/537.36 (KHTML, like Gecko) Chrome/92.0.4515.131 Safari/537.36",1536,722,1536,864,,,,,,,,3,6.6026,0.375000019,-0.439814829,1,0,0,next_trial_button,0,3,3,36,1,landscape,invisiblesun,noclouds,4,"281.25,500",
,,,,,,,gr,gr,gr,f,20,,2021-08-25_11h14.02.806,online_experiment,2021.1.4,Win32,60.08171113,IwAR0XODgFFzx-56_FZQN_QVVo5iE6vyr3Hpqwly27Ch-nEJS--suRHHQX3Vw,FALSE,,"Mozilla/5.0 (Windows NT 10.0; Win64; x64) AppleWebKit/537.36 (KHTML, like Gecko) Chrome/92.0.4515.131 Safari/537.36",1536,722,1536,864,,,,,,,,5,8.2447,0.370370389,-0.429629643,1,0,0,next_trial_button,0,4,4,49,1,beach,invisiblesun,yesclouds,6,"858.4474885844749,500",
,,,,,,,gr,gr,gr,f,20,,2021-08-25_11h14.02.806,online_experiment,2021.1.4,Win32,60.08171113,IwAR0XODgFFzx-56_FZQN_QVVo5iE6vyr3Hpqwly27Ch-nEJS--suRHHQX3Vw,FALSE,,"Mozilla/5.0 (Windows NT 10.0; Win64; x64) AppleWebKit/537.36 (KHTML, like Gecko) Chrome/92.0.4515.131 Safari/537.36",1536,722,1536,864,,,,,,,,1,8.3453,0.374074206,-0.431481495,1,0,0,next_trial_button,0,5,5,77,1,landscape,invisiblesun,yesclouds,9,"888.8888888888888,500",
,,,,,,,gr,gr,gr,f,20,,2021-08-25_11h14.02.806,online_experiment,2021.1.4,Win32,60.08171113,IwAR0XODgFFzx-56_FZQN_QVVo5iE6vyr3Hpqwly27Ch-nEJS--suRHHQX3Vw,FALSE,,"Mozilla/5.0 (Windows NT 10.0; Win64; x64) AppleWebKit/537.36 (KHTML, like Gecko) Chrome/92.0.4515.131 Safari/537.36",1536,722,1536,864,,,,,,,,6,10.9262,0.32222224,-0.414814828,1,0,0,next_trial_button,0,6,6,0,1,beach,invisiblesun,noclouds,0,"750,500",
,,,,,,,gr,gr,gr,f,20,,2021-08-25_11h14.02.806,online_experiment,2021.1.4,Win32,60.08171113,IwAR0XODgFFzx-56_FZQN_QVVo5iE6vyr3Hpqwly27Ch-nEJS--suRHHQX3Vw,FALSE,,"Mozilla/5.0 (Windows NT 10.0; Win64; x64) AppleWebKit/537.36 (KHTML, like Gecko) Chrome/92.0.4515.131 Safari/537.36",1536,722,1536,864,,,,,,,,10,5.8467,0.446296316,-0.413888959,1,0,0,next_trial_button,0,7,7,38,1,landscape,visiblesun,noclouds,4,"733.3333333333333,500",
,,,,,,,gr,gr,gr,f,20,,2021-08-25_11h14.02.806,online_experiment,2021.1.4,Win32,60.08171113,IwAR0XODgFFzx-56_FZQN_QVVo5iE6vyr3Hpqwly27Ch-nEJS--suRHHQX3Vw,FALSE,,"Mozilla/5.0 (Windows NT 10.0; Win64; x64) AppleWebKit/537.36 (KHTML, like Gecko) Chrome/92.0.4515.131 Safari/537.36",1536,722,1536,864,,,,,,,,7,3.6618,0.398148167,-0.41666668,1,0,0,next_trial_button,0,8,8,17,1,beach,invisiblesun,yesclouds,2,"684.8635235732011,500",
,,,,,,,gr,gr,gr,f,20,,2021-08-25_11h14.02.806,online_experiment,2021.1.4,Win32,60.08171113,IwAR0XODgFFzx-56_FZQN_QVVo5iE6vyr3Hpqwly27Ch-nEJS--suRHHQX3Vw,FALSE,,"Mozilla/5.0 (Windows NT 10.0; Win64; x64) AppleWebKit/537.36 (KHTML, like Gecko) Chrome/92.0.4515.131 Safari/537.36",1536,722,1536,864,,,,,,,,9,5.8058,0.419444464,-0.450000014,1,0,0,next_trial_button,0,9,9,53,1,landscape,invisiblesun,yesclouds,6,"750.0695023630803,500",
,,,,,,,gr,gr,gr,f,20,,2021-08-25_11h14.02.806,online_experiment,2021.1.4,Win32,60.08171113,IwAR0XODgFFzx-56_FZQN_QVVo5iE6vyr3Hpqwly27Ch-nEJS--suRHHQX3Vw,FALSE,,"Mozilla/5.0 (Windows NT 10.0; Win64; x64) AppleWebKit/537.36 (KHTML, like Gecko) Chrome/92.0.4515.131 Safari/537.36",1536,722,1536,864,,,,,,,,1,5.9345,0.346296428,-0.434259273,1,0,0,next_trial_button,0,10,10,63,1,landscape,visiblesun,yesclouds,7,"331.94444444444446,500",
,,,,,,,gr,gr,gr,f,20,,2021-08-25_11h14.02.806,online_experiment,2021.1.4,Win32,60.08171113,IwAR0XODgFFzx-56_FZQN_QVVo5iE6vyr3Hpqwly27Ch-nEJS--suRHHQX3Vw,FALSE,,"Mozilla/5.0 (Windows NT 10.0; Win64; x64) AppleWebKit/537.36 (KHTML, like Gecko) Chrome/92.0.4515.131 Safari/537.36",1536,722,1536,864,,,,,,,,8,9.0569,0.399074093,-0.432407478,1,0,0,next_trial_button,0,11,11,35,1,beach,visiblesun,yesclouds,4,"750,500",
,,,,,,,gr,gr,gr,f,20,,2021-08-25_11h14.02.806,online_experiment,2021.1.4,Win32,60.08171113,IwAR0XODgFFzx-56_FZQN_QVVo5iE6vyr3Hpqwly27Ch-nEJS--suRHHQX3Vw,FALSE,,"Mozilla/5.0 (Windows NT 10.0; Win64; x64) AppleWebKit/537.36 (KHTML, like Gecko) Chrome/92.0.4515.131 Safari/537.36",1536,722,1536,864,,,,,,,,3,6.3032,0.376851871,-0.441666737,1,0,0,next_trial_button,0,12,12,21,1,landscape,invisiblesun,yesclouds,2,"750,500",
,,,,,,,gr,gr,gr,f,20,,2021-08-25_11h14.02.806,online_experiment,2021.1.4,Win32,60.08171113,IwAR0XODgFFzx-56_FZQN_QVVo5iE6vyr3Hpqwly27Ch-nEJS--suRHHQX3Vw,FALSE,,"Mozilla/5.0 (Windows NT 10.0; Win64; x64) AppleWebKit/537.36 (KHTML, like Gecko) Chrome/92.0.4515.131 Safari/537.36",1536,722,1536,864,,,,,,,,6,12.8891,0.375000019,-0.439814829,1,0,0,next_trial_button,0,13,13,75,1,beach,visiblesun,yesclouds,9,"1029.6010296010297,500",
,,,,,,,gr,gr,gr,f,20,,2021-08-25_11h14.02.806,online_experiment,2021.1.4,Win32,60.08171113,IwAR0XODgFFzx-56_FZQN_QVVo5iE6vyr3Hpqwly27Ch-nEJS--suRHHQX3Vw,FALSE,,"Mozilla/5.0 (Windows NT 10.0; Win64; x64) AppleWebKit/537.36 (KHTML, like Gecko) Chrome/92.0.4515.131 Safari/537.36",1536,722,1536,864,,,,,,,,6,4.6943,0.422222242,-0.438888903,1,0,0,next_trial_button,0,14,14,18,1,beach,visiblesun,noclouds,2,"666.6666666666666,500",
,,,,,,,gr,gr,gr,f,20,,2021-08-25_11h14.02.806,online_experiment,2021.1.4,Win32,60.08171113,IwAR0XODgFFzx-56_FZQN_QVVo5iE6vyr3Hpqwly27Ch-nEJS--suRHHQX3Vw,FALSE,,"Mozilla/5.0 (Windows NT 10.0; Win64; x64) AppleWebKit/537.36 (KHTML, like Gecko) Chrome/92.0.4515.131 Safari/537.36",1536,722,1536,864,,,,,,,,6,3.8672,0.341666798,-0.449074088,1,0,0,next_trial_button,0,15,15,25,1,beach,invisiblesun,yesclouds,3,"750.4690431519699,500",
,,,,,,,gr,gr,gr,f,20,,2021-08-25_11h14.02.806,online_experiment,2021.1.4,Win32,60.08171113,IwAR0XODgFFzx-56_FZQN_QVVo5iE6vyr3Hpqwly27Ch-nEJS--suRHHQX3Vw,FALSE,,"Mozilla/5.0 (Windows NT 10.0; Win64; x64) AppleWebKit/537.36 (KHTML, like Gecko) Chrome/92.0.4515.131 Safari/537.36",1536,722,1536,864,,,,,,,,9,4.1474,0.409259279,-0.45092594,1,0,0,next_trial_button,0,16,16,46,1,landscape,visiblesun,noclouds,5,"750,500",
,,,,,,,gr,gr,gr,f,20,,2021-08-25_11h14.02.806,online_experiment,2021.1.4,Win32,60.08171113,IwAR0XODgFFzx-56_FZQN_QVVo5iE6vyr3Hpqwly27Ch-nEJS--suRHHQX3Vw,FALSE,,"Mozilla/5.0 (Windows NT 10.0; Win64; x64) AppleWebKit/537.36 (KHTML, like Gecko) Chrome/92.0.4515.131 Safari/537.36",1536,722,1536,864,,,,,,,,4,5.5405,0.400925945,-0.431481495,1,0,0,next_trial_button,0,17,17,51,1,beach,visiblesun,yesclouds,6,"657.1279916753382,500",
,,,,,,,gr,gr,gr,f,20,,2021-08-25_11h14.02.806,online_experiment,2021.1.4,Win32,60.08171113,IwAR0XODgFFzx-56_FZQN_QVVo5iE6vyr3Hpqwly27Ch-nEJS--suRHHQX3Vw,FALSE,,"Mozilla/5.0 (Windows NT 10.0; Win64; x64) AppleWebKit/537.36 (KHTML, like Gecko) Chrome/92.0.4515.131 Safari/537.36",1536,722,1536,864,,,,,,,,10,4.1169,0.344444463,-0.41666668,1,0,0,next_trial_button,0,18,18,45,1,landscape,invisiblesun,yesclouds,5,"749.6251874062968,500",
,,,,,,,gr,gr,gr,f,20,,2021-08-25_11h14.02.806,online_experiment,2021.1.4,Win32,60.08171113,IwAR0XODgFFzx-56_FZQN_QVVo5iE6vyr3Hpqwly27Ch-nEJS--suRHHQX3Vw,FALSE,,"Mozilla/5.0 (Windows NT 10.0; Win64; x64) AppleWebKit/537.36 (KHTML, like Gecko) Chrome/92.0.4515.131 Safari/537.36",1536,722,1536,864,,,,,,,,7,5.3591,0.413888908,-0.437962977,1,0,0,next_trial_button,0,19,19,37,1,landscape,invisiblesun,yesclouds,4,"669.4214876033058,500",
,,,,,,,gr,gr,gr,f,20,,2021-08-25_11h14.02.806,online_experiment,2021.1.4,Win32,60.08171113,IwAR0XODgFFzx-56_FZQN_QVVo5iE6vyr3Hpqwly27Ch-nEJS--suRHHQX3Vw,FALSE,,"Mozilla/5.0 (Windows NT 10.0; Win64; x64) AppleWebKit/537.36 (KHTML, like Gecko) Chrome/92.0.4515.131 Safari/537.36",1536,722,1536,864,,,,,,,,1,4.4269,0.417592612,-0.412037051,1,0,0,next_trial_button,0,20,20,76,1,landscape,invisiblesun,noclouds,9,"1056.6037735849056,500",
,,,,,,,gr,gr,gr,f,20,,2021-08-25_11h14.02.806,online_experiment,2021.1.4,Win32,60.08171113,IwAR0XODgFFzx-56_FZQN_QVVo5iE6vyr3Hpqwly27Ch-nEJS--suRHHQX3Vw,FALSE,,"Mozilla/5.0 (Windows NT 10.0; Win64; x64) AppleWebKit/537.36 (KHTML, like Gecko) Chrome/92.0.4515.131 Safari/537.36",1536,722,1536,864,,,,,,,,3,7.2159,0.358333352,-0.415740754,1,0,0,next_trial_button,0,21,21,4,1,landscape,invisiblesun,noclouds,0,"1276.9171185127807,500",
,,,,,,,gr,gr,gr,f,20,,2021-08-25_11h14.02.806,online_experiment,2021.1.4,Win32,60.08171113,IwAR0XODgFFzx-56_FZQN_QVVo5iE6vyr3Hpqwly27Ch-nEJS--suRHHQX3Vw,FALSE,,"Mozilla/5.0 (Windows NT 10.0; Win64; x64) AppleWebKit/537.36 (KHTML, like Gecko) Chrome/92.0.4515.131 Safari/537.36",1536,722,1536,864,,,,,,,,2,4.2055,0.365740759,-0.410185199,1,0,0,next_trial_button,0,22,22,42,1,beach,visiblesun,noclouds,5,"834.4594594594595,500",
,,,,,,,gr,gr,gr,f,20,,2021-08-25_11h14.02.806,online_experiment,2021.1.4,Win32,60.08171113,IwAR0XODgFFzx-56_FZQN_QVVo5iE6vyr3Hpqwly27Ch-nEJS--suRHHQX3Vw,FALSE,,"Mozilla/5.0 (Windows NT 10.0; Win64; x64) AppleWebKit/537.36 (KHTML, like Gecko) Chrome/92.0.4515.131 Safari/537.36",1536,722,1536,864,,,,,,,,2,6.896,0.422222242,-0.45555557,1,0,0,next_trial_button,0,23,23,64,1,beach,invisiblesun,noclouds,8,"1028.5714285714284,500",
,,,,,,,gr,gr,gr,f,20,,2021-08-25_11h14.02.806,online_experiment,2021.1.4,Win32,60.08171113,IwAR0XODgFFzx-56_FZQN_QVVo5iE6vyr3Hpqwly27Ch-nEJS--suRHHQX3Vw,FALSE,,"Mozilla/5.0 (Windows NT 10.0; Win64; x64) AppleWebKit/537.36 (KHTML, like Gecko) Chrome/92.0.4515.131 Safari/537.36",1536,722,1536,864,,,,,,,,9,3.9166,0.397222354,-0.415740754,1,0,0,next_trial_button,0,24,24,29,1,landscape,invisiblesun,yesclouds,3,"749.8660953401178,500",
,,,,,,,gr,gr,gr,f,20,,2021-08-25_11h14.02.806,online_experiment,2021.1.4,Win32,60.08171113,IwAR0XODgFFzx-56_FZQN_QVVo5iE6vyr3Hpqwly27Ch-nEJS--suRHHQX3Vw,FALSE,,"Mozilla/5.0 (Windows NT 10.0; Win64; x64) AppleWebKit/537.36 (KHTML, like Gecko) Chrome/92.0.4515.131 Safari/537.36",1536,722,1536,864,,,,,,,,7,3.8436,0.433333353,-0.419444458,1,0,0,next_trial_button,0,25,25,54,1,landscape,visiblesun,noclouds,6,"695.0043821209465,500",
,,,,,,,gr,gr,gr,f,20,,2021-08-25_11h14.02.806,online_experiment,2021.1.4,Win32,60.08171113,IwAR0XODgFFzx-56_FZQN_QVVo5iE6vyr3Hpqwly27Ch-nEJS--suRHHQX3Vw,FALSE,,"Mozilla/5.0 (Windows NT 10.0; Win64; x64) AppleWebKit/537.36 (KHTML, like Gecko) Chrome/92.0.4515.131 Safari/537.36",1536,722,1536,864,,,,,,,,5,4.3591,0.325000018,-0.437037108,1,0,0,next_trial_button,0,26,26,55,1,landscape,visiblesun,yesclouds,6,"749.8819083608881,500",
,,,,,,,gr,gr,gr,f,20,,2021-08-25_11h14.02.806,online_experiment,2021.1.4,Win32,60.08171113,IwAR0XODgFFzx-56_FZQN_QVVo5iE6vyr3Hpqwly27Ch-nEJS--suRHHQX3Vw,FALSE,,"Mozilla/5.0 (Windows NT 10.0; Win64; x64) AppleWebKit/537.36 (KHTML, like Gecko) Chrome/92.0.4515.131 Safari/537.36",1536,722,1536,864,,,,,,,,2,9.8586,0.340740759,-0.440740755,1,0,0,next_trial_button,0,27,27,70,1,landscape,visiblesun,noclouds,8,"666.6666666666666,500",
,,,,,,,gr,gr,gr,f,20,,2021-08-25_11h14.02.806,online_experiment,2021.1.4,Win32,60.08171113,IwAR0XODgFFzx-56_FZQN_QVVo5iE6vyr3Hpqwly27Ch-nEJS--suRHHQX3Vw,FALSE,,"Mozilla/5.0 (Windows NT 10.0; Win64; x64) AppleWebKit/537.36 (KHTML, like Gecko) Chrome/92.0.4515.131 Safari/537.36",1536,722,1536,864,,,,,,,,2,8.7744,0.325925944,-0.424074088,1,0,0,next_trial_button,0,28,28,78,1,landscape,visiblesun,noclouds,9,"666.6666666666666,500",
,,,,,,,gr,gr,gr,f,20,,2021-08-25_11h14.02.806,online_experiment,2021.1.4,Win32,60.08171113,IwAR0XODgFFzx-56_FZQN_QVVo5iE6vyr3Hpqwly27Ch-nEJS--suRHHQX3Vw,FALSE,,"Mozilla/5.0 (Windows NT 10.0; Win64; x64) AppleWebKit/537.36 (KHTML, like Gecko) Chrome/92.0.4515.131 Safari/537.36",1536,722,1536,864,,,,,,,,7,5.1407,0.398148167,-0.439814829,1,0,0,next_trial_button,0,29,29,8,1,beach,invisiblesun,noclouds,1,"1215.1898734177216,500",
,,,,,,,gr,gr,gr,f,20,,2021-08-25_11h14.02.806,online_experiment,2021.1.4,Win32,60.08171113,IwAR0XODgFFzx-56_FZQN_QVVo5iE6vyr3Hpqwly27Ch-nEJS--suRHHQX3Vw,FALSE,,"Mozilla/5.0 (Windows NT 10.0; Win64; x64) AppleWebKit/537.36 (KHTML, like Gecko) Chrome/92.0.4515.131 Safari/537.36",1536,722,1536,864,,,,,,,,4,5.0771,0.332407539,-0.420370384,1,0,0,next_trial_button,0,30,30,61,1,landscape,invisiblesun,yesclouds,7,"500,500",
,,,,,,,gr,gr,gr,f,20,,2021-08-25_11h14.02.806,online_experiment,2021.1.4,Win32,60.08171113,IwAR0XODgFFzx-56_FZQN_QVVo5iE6vyr3Hpqwly27Ch-nEJS--suRHHQX3Vw,FALSE,,"Mozilla/5.0 (Windows NT 10.0; Win64; x64) AppleWebKit/537.36 (KHTML, like Gecko) Chrome/92.0.4515.131 Safari/537.36",1536,722,1536,864,,,,,,,,3,7.8967,0.4666668,-0.431481495,1,0,0,next_trial_button,0,31,31,13,1,landscape,invisiblesun,yesclouds,1,"783.1192660550458,500",
,,,,,,,gr,gr,gr,f,20,,2021-08-25_11h14.02.806,online_experiment,2021.1.4,Win32,60.08171113,IwAR0XODgFFzx-56_FZQN_QVVo5iE6vyr3Hpqwly27Ch-nEJS--suRHHQX3Vw,FALSE,,"Mozilla/5.0 (Windows NT 10.0; Win64; x64) AppleWebKit/537.36 (KHTML, like Gecko) Chrome/92.0.4515.131 Safari/537.36",1536,722,1536,864,,,,,,,,8,6.2262,0.4666668,-0.423148218,1,0,0,next_trial_button,0,32,32,2,1,beach,visiblesun,noclouds,0,"375,500",
,,,,,,,gr,gr,gr,f,20,,2021-08-25_11h14.02.806,online_experiment,2021.1.4,Win32,60.08171113,IwAR0XODgFFzx-56_FZQN_QVVo5iE6vyr3Hpqwly27Ch-nEJS--suRHHQX3Vw,FALSE,,"Mozilla/5.0 (Windows NT 10.0; Win64; x64) AppleWebKit/537.36 (KHTML, like Gecko) Chrome/92.0.4515.131 Safari/537.36",1536,722,1536,864,,,,,,,,10,3.9135,0.402777797,-0.433333347,1,0,0,next_trial_button,0,33,33,16,1,beach,invisiblesun,noclouds,2,"752.8089887640449,500",
,,,,,,,gr,gr,gr,f,20,,2021-08-25_11h14.02.806,online_experiment,2021.1.4,Win32,60.08171113,IwAR0XODgFFzx-56_FZQN_QVVo5iE6vyr3Hpqwly27Ch-nEJS--suRHHQX3Vw,FALSE,,"Mozilla/5.0 (Windows NT 10.0; Win64; x64) AppleWebKit/537.36 (KHTML, like Gecko) Chrome/92.0.4515.131 Safari/537.36",1536,722,1536,864,,,,,,,,5,7.3175,0.377777797,-0.413888959,1,0,0,next_trial_button,0,34,34,73,1,beach,invisiblesun,yesclouds,9,"1028.5714285714284,500",
,,,,,,,gr,gr,gr,f,20,,2021-08-25_11h14.02.806,online_experiment,2021.1.4,Win32,60.08171113,IwAR0XODgFFzx-56_FZQN_QVVo5iE6vyr3Hpqwly27Ch-nEJS--suRHHQX3Vw,FALSE,,"Mozilla/5.0 (Windows NT 10.0; Win64; x64) AppleWebKit/537.36 (KHTML, like Gecko) Chrome/92.0.4515.131 Safari/537.36",1536,722,1536,864,,,,,,,,7,4.2758,0.433333353,-0.436111125,1,0,0,next_trial_button,0,35,35,67,1,beach,visiblesun,yesclouds,8,"748.1481481481482,500",
,,,,,,,gr,gr,gr,f,20,,2021-08-25_11h14.02.806,online_experiment,2021.1.4,Win32,60.08171113,IwAR0XODgFFzx-56_FZQN_QVVo5iE6vyr3Hpqwly27Ch-nEJS--suRHHQX3Vw,FALSE,,"Mozilla/5.0 (Windows NT 10.0; Win64; x64) AppleWebKit/537.36 (KHTML, like Gecko) Chrome/92.0.4515.131 Safari/537.36",1536,722,1536,864,,,,,,,,8,4.6168,0.485185319,-0.451851866,1,0,0,next_trial_button,0,36,36,11,1,beach,visiblesun,yesclouds,1,"989.8132427843803,500",
,,,,,,,gr,gr,gr,f,20,,2021-08-25_11h14.02.806,online_experiment,2021.1.4,Win32,60.08171113,IwAR0XODgFFzx-56_FZQN_QVVo5iE6vyr3Hpqwly27Ch-nEJS--suRHHQX3Vw,FALSE,,"Mozilla/5.0 (Windows NT 10.0; Win64; x64) AppleWebKit/537.36 (KHTML, like Gecko) Chrome/92.0.4515.131 Safari/537.36",1536,722,1536,864,,,,,,,,1,13.1974,0.444444464,-0.419444458,1,0,0,next_trial_button,0,37,37,56,1,beach,invisiblesun,noclouds,7,"1028.5714285714284,500",
,,,,,,,gr,gr,gr,f,20,,2021-08-25_11h14.02.806,online_experiment,2021.1.4,Win32,60.08171113,IwAR0XODgFFzx-56_FZQN_QVVo5iE6vyr3Hpqwly27Ch-nEJS--suRHHQX3Vw,FALSE,,"Mozilla/5.0 (Windows NT 10.0; Win64; x64) AppleWebKit/537.36 (KHTML, like Gecko) Chrome/92.0.4515.131 Safari/537.36",1536,722,1536,864,,,,,,,,8,3.5441,0.438889022,-0.408333347,1,0,0,next_trial_button,0,38,38,65,1,beach,invisiblesun,yesclouds,8,"750,500",
,,,,,,,gr,gr,gr,f,20,,2021-08-25_11h14.02.806,online_experiment,2021.1.4,Win32,60.08171113,IwAR0XODgFFzx-56_FZQN_QVVo5iE6vyr3Hpqwly27Ch-nEJS--suRHHQX3Vw,FALSE,,"Mozilla/5.0 (Windows NT 10.0; Win64; x64) AppleWebKit/537.36 (KHTML, like Gecko) Chrome/92.0.4515.131 Safari/537.36",1536,722,1536,864,,,,,,,,9,3.5897,0.360185317,-0.437037108,1,0,0,next_trial_button,0,39,39,41,1,beach,invisiblesun,yesclouds,5,"1248.4394506866417,500",
,,,,,,,gr,gr,gr,f,20,,2021-08-25_11h14.02.806,online_experiment,2021.1.4,Win32,60.08171113,IwAR0XODgFFzx-56_FZQN_QVVo5iE6vyr3Hpqwly27Ch-nEJS--suRHHQX3Vw,FALSE,,"Mozilla/5.0 (Windows NT 10.0; Win64; x64) AppleWebKit/537.36 (KHTML, like Gecko) Chrome/92.0.4515.131 Safari/537.36",1536,722,1536,864,,,,,,,,4,5.5933,0.46203717,-0.39629631,1,0,0,next_trial_button,0,40,40,23,1,landscape,visiblesun,yesclouds,2,"767.97829036635,500",
,,,,,,,gr,gr,gr,f,20,,2021-08-25_11h14.02.806,online_experiment,2021.1.4,Win32,60.08171113,IwAR0XODgFFzx-56_FZQN_QVVo5iE6vyr3Hpqwly27Ch-nEJS--suRHHQX3Vw,FALSE,,"Mozilla/5.0 (Windows NT 10.0; Win64; x64) AppleWebKit/537.36 (KHTML, like Gecko) Chrome/92.0.4515.131 Safari/537.36",1536,722,1536,864,,,,,,,,6,4.1233,0.389814834,-0.427777848,1,0,0,next_trial_button,0,41,41,43,1,beach,visiblesun,yesclouds,5,"750,500",
,,,,,,,gr,gr,gr,f,20,,2021-08-25_11h14.02.806,online_experiment,2021.1.4,Win32,60.08171113,IwAR0XODgFFzx-56_FZQN_QVVo5iE6vyr3Hpqwly27Ch-nEJS--suRHHQX3Vw,FALSE,,"Mozilla/5.0 (Windows NT 10.0; Win64; x64) AppleWebKit/537.36 (KHTML, like Gecko) Chrome/92.0.4515.131 Safari/537.36",1536,722,1536,864,,,,,,,,10,4.3319,0.438889022,-0.438888903,1,0,0,next_trial_button,0,42,42,58,1,beach,visiblesun,noclouds,7,"1028.5714285714284,500",
,,,,,,,gr,gr,gr,f,20,,2021-08-25_11h14.02.806,online_experiment,2021.1.4,Win32,60.08171113,IwAR0XODgFFzx-56_FZQN_QVVo5iE6vyr3Hpqwly27Ch-nEJS--suRHHQX3Vw,FALSE,,"Mozilla/5.0 (Windows NT 10.0; Win64; x64) AppleWebKit/537.36 (KHTML, like Gecko) Chrome/92.0.4515.131 Safari/537.36",1536,722,1536,864,,,,,,,,7,15.2618,0.437037057,-0.412037051,1,0,0,next_trial_button,0,43,43,22,1,landscape,visiblesun,noclouds,2,"749.3333333333333,500",
,,,,,,,gr,gr,gr,f,20,,2021-08-25_11h14.02.806,online_experiment,2021.1.4,Win32,60.08171113,IwAR0XODgFFzx-56_FZQN_QVVo5iE6vyr3Hpqwly27Ch-nEJS--suRHHQX3Vw,FALSE,,"Mozilla/5.0 (Windows NT 10.0; Win64; x64) AppleWebKit/537.36 (KHTML, like Gecko) Chrome/92.0.4515.131 Safari/537.36",1536,722,1536,864,,,,,,,,6,8.4782,0.372222241,-0.422222236,1,0,0,next_trial_button,0,44,44,48,1,beach,invisiblesun,noclouds,6,"1028.5714285714284,500",
,,,,,,,gr,gr,gr,f,20,,2021-08-25_11h14.02.806,online_experiment,2021.1.4,Win32,60.08171113,IwAR0XODgFFzx-56_FZQN_QVVo5iE6vyr3Hpqwly27Ch-nEJS--suRHHQX3Vw,FALSE,,"Mozilla/5.0 (Windows NT 10.0; Win64; x64) AppleWebKit/537.36 (KHTML, like Gecko) Chrome/92.0.4515.131 Safari/537.36",1536,722,1536,864,,,,,,,,5,3.5762,0.354629648,-0.446296367,1,0,0,next_trial_button,0,45,45,31,1,landscape,visiblesun,yesclouds,3,"638.0622837370242,500",
,,,,,,,gr,gr,gr,f,20,,2021-08-25_11h14.02.806,online_experiment,2021.1.4,Win32,60.08171113,IwAR0XODgFFzx-56_FZQN_QVVo5iE6vyr3Hpqwly27Ch-nEJS--suRHHQX3Vw,FALSE,,"Mozilla/5.0 (Windows NT 10.0; Win64; x64) AppleWebKit/537.36 (KHTML, like Gecko) Chrome/92.0.4515.131 Safari/537.36",1536,722,1536,864,,,,,,,,1,5.3434,0.355555687,-0.444444459,1,0,0,next_trial_button,0,46,46,44,1,landscape,invisiblesun,noclouds,5,"666.6666666666666,500",
,,,,,,,gr,gr,gr,f,20,,2021-08-25_11h14.02.806,online_experiment,2021.1.4,Win32,60.08171113,IwAR0XODgFFzx-56_FZQN_QVVo5iE6vyr3Hpqwly27Ch-nEJS--suRHHQX3Vw,FALSE,,"Mozilla/5.0 (Windows NT 10.0; Win64; x64) AppleWebKit/537.36 (KHTML, like Gecko) Chrome/92.0.4515.131 Safari/537.36",1536,722,1536,864,,,,,,,,7,5.5977,0.354629648,-0.437962977,1,0,0,next_trial_button,0,47,47,26,1,beach,visiblesun,noclouds,3,"888.8888888888888,500",
,,,,,,,gr,gr,gr,f,20,,2021-08-25_11h14.02.806,online_experiment,2021.1.4,Win32,60.08171113,IwAR0XODgFFzx-56_FZQN_QVVo5iE6vyr3Hpqwly27Ch-nEJS--suRHHQX3Vw,FALSE,,"Mozilla/5.0 (Windows NT 10.0; Win64; x64) AppleWebKit/537.36 (KHTML, like Gecko) Chrome/92.0.4515.131 Safari/537.36",1536,722,1536,864,,,,,,,,4,4.4221,0.388888908,-0.445370384,1,0,0,next_trial_button,0,48,48,62,1,landscape,visiblesun,noclouds,7,"417.42389822807814,500",
,,,,,,,gr,gr,gr,f,20,,2021-08-25_11h14.02.806,online_experiment,2021.1.4,Win32,60.08171113,IwAR0XODgFFzx-56_FZQN_QVVo5iE6vyr3Hpqwly27Ch-nEJS--suRHHQX3Vw,FALSE,,"Mozilla/5.0 (Windows NT 10.0; Win64; x64) AppleWebKit/537.36 (KHTML, like Gecko) Chrome/92.0.4515.131 Safari/537.36",1536,722,1536,864,,,,,,,,4,5.7735,0.332407539,-0.429629643,1,0,0,next_trial_button,0,49,49,72,1,beach,invisiblesun,noclouds,9,"888.8888888888888,500",
,,,,,,,gr,gr,gr,f,20,,2021-08-25_11h14.02.806,online_experiment,2021.1.4,Win32,60.08171113,IwAR0XODgFFzx-56_FZQN_QVVo5iE6vyr3Hpqwly27Ch-nEJS--suRHHQX3Vw,FALSE,,"Mozilla/5.0 (Windows NT 10.0; Win64; x64) AppleWebKit/537.36 (KHTML, like Gecko) Chrome/92.0.4515.131 Safari/537.36",1536,722,1536,864,,,,,,,,6,18.4339,0.392592725,-0.392592606,1,0,0,next_trial_button,0,50,50,57,1,beach,invisiblesun,yesclouds,7,"749.707488299532,500",
,,,,,,,gr,gr,gr,f,20,,2021-08-25_11h14.02.806,online_experiment,2021.1.4,Win32,60.08171113,IwAR0XODgFFzx-56_FZQN_QVVo5iE6vyr3Hpqwly27Ch-nEJS--suRHHQX3Vw,FALSE,,"Mozilla/5.0 (Windows NT 10.0; Win64; x64) AppleWebKit/537.36 (KHTML, like Gecko) Chrome/92.0.4515.131 Safari/537.36",1536,722,1536,864,,,,,,,,3,3.4504,0.305555573,-0.422222236,1,0,0,next_trial_button,0,51,51,50,1,beach,visiblesun,noclouds,6,"666.6666666666666,500",
,,,,,,,gr,gr,gr,f,20,,2021-08-25_11h14.02.806,online_experiment,2021.1.4,Win32,60.08171113,IwAR0XODgFFzx-56_FZQN_QVVo5iE6vyr3Hpqwly27Ch-nEJS--suRHHQX3Vw,FALSE,,"Mozilla/5.0 (Windows NT 10.0; Win64; x64) AppleWebKit/537.36 (KHTML, like Gecko) Chrome/92.0.4515.131 Safari/537.36",1536,722,1536,864,,,,,,,,2,4.0838,0.358333352,-0.429629643,1,0,0,next_trial_button,0,52,52,20,1,landscape,invisiblesun,noclouds,2,"755.192878338279,500",
,,,,,,,gr,gr,gr,f,20,,2021-08-25_11h14.02.806,online_experiment,2021.1.4,Win32,60.08171113,IwAR0XODgFFzx-56_FZQN_QVVo5iE6vyr3Hpqwly27Ch-nEJS--suRHHQX3Vw,FALSE,,"Mozilla/5.0 (Windows NT 10.0; Win64; x64) AppleWebKit/537.36 (KHTML, like Gecko) Chrome/92.0.4515.131 Safari/537.36",1536,722,1536,864,,,,,,,,8,5.4512,0.483333354,-0.402777791,1,0,0,next_trial_button,0,53,53,3,1,beach,visiblesun,yesclouds,0,"1152.5122276567363,500",
,,,,,,,gr,gr,gr,f,20,,2021-08-25_11h14.02.806,online_experiment,2021.1.4,Win32,60.08171113,IwAR0XODgFFzx-56_FZQN_QVVo5iE6vyr3Hpqwly27Ch-nEJS--suRHHQX3Vw,FALSE,,"Mozilla/5.0 (Windows NT 10.0; Win64; x64) AppleWebKit/537.36 (KHTML, like Gecko) Chrome/92.0.4515.131 Safari/537.36",1536,722,1536,864,,,,,,,,6,4.6882,0.421296316,-0.429629643,1,0,0,next_trial_button,0,54,54,33,1,beach,invisiblesun,yesclouds,4,"751.5473032714411,500",
,,,,,,,gr,gr,gr,f,20,,2021-08-25_11h14.02.806,online_experiment,2021.1.4,Win32,60.08171113,IwAR0XODgFFzx-56_FZQN_QVVo5iE6vyr3Hpqwly27Ch-nEJS--suRHHQX3Vw,FALSE,,"Mozilla/5.0 (Windows NT 10.0; Win64; x64) AppleWebKit/537.36 (KHTML, like Gecko) Chrome/92.0.4515.131 Safari/537.36",1536,722,1536,864,,,,,,,,10,8.3136,0.366666685,-0.411111125,1,0,0,next_trial_button,0,55,55,6,1,landscape,visiblesun,noclouds,0,"1413.8005159071367,500",
,,,,,,,gr,gr,gr,f,20,,2021-08-25_11h14.02.806,online_experiment,2021.1.4,Win32,60.08171113,IwAR0XODgFFzx-56_FZQN_QVVo5iE6vyr3Hpqwly27Ch-nEJS--suRHHQX3Vw,FALSE,,"Mozilla/5.0 (Windows NT 10.0; Win64; x64) AppleWebKit/537.36 (KHTML, like Gecko) Chrome/92.0.4515.131 Safari/537.36",1536,722,1536,864,,,,,,,,10,5.3545,0.338888907,-0.417592606,1,0,0,next_trial_button,0,56,56,1,1,beach,invisiblesun,yesclouds,0,"666.6666666666666,500",
,,,,,,,gr,gr,gr,f,20,,2021-08-25_11h14.02.806,online_experiment,2021.1.4,Win32,60.08171113,IwAR0XODgFFzx-56_FZQN_QVVo5iE6vyr3Hpqwly27Ch-nEJS--suRHHQX3Vw,FALSE,,"Mozilla/5.0 (Windows NT 10.0; Win64; x64) AppleWebKit/537.36 (KHTML, like Gecko) Chrome/92.0.4515.131 Safari/537.36",1536,722,1536,864,,,,,,,,7,4.3671,0.380555574,-0.42592594,1,0,0,next_trial_button,0,57,57,7,1,landscape,visiblesun,yesclouds,0,"743.421052631579,500",
,,,,,,,gr,gr,gr,f,20,,2021-08-25_11h14.02.806,online_experiment,2021.1.4,Win32,60.08171113,IwAR0XODgFFzx-56_FZQN_QVVo5iE6vyr3Hpqwly27Ch-nEJS--suRHHQX3Vw,FALSE,,"Mozilla/5.0 (Windows NT 10.0; Win64; x64) AppleWebKit/537.36 (KHTML, like Gecko) Chrome/92.0.4515.131 Safari/537.36",1536,722,1536,864,,,,,,,,5,4.6486,0.404629649,-0.438888903,1,0,0,next_trial_button,0,58,58,34,1,beach,visiblesun,noclouds,4,"749.6251874062968,500",
,,,,,,,gr,gr,gr,f,20,,2021-08-25_11h14.02.806,online_experiment,2021.1.4,Win32,60.08171113,IwAR0XODgFFzx-56_FZQN_QVVo5iE6vyr3Hpqwly27Ch-nEJS--suRHHQX3Vw,FALSE,,"Mozilla/5.0 (Windows NT 10.0; Win64; x64) AppleWebKit/537.36 (KHTML, like Gecko) Chrome/92.0.4515.131 Safari/537.36",1536,722,1536,864,,,,,,,,5,7.2431,0.339814833,-0.39629631,1,0,0,next_trial_button,0,59,59,10,1,beach,visiblesun,noclouds,1,"747.0261697065821,500",
,,,,,,,gr,gr,gr,f,20,,2021-08-25_11h14.02.806,online_experiment,2021.1.4,Win32,60.08171113,IwAR0XODgFFzx-56_FZQN_QVVo5iE6vyr3Hpqwly27Ch-nEJS--suRHHQX3Vw,FALSE,,"Mozilla/5.0 (Windows NT 10.0; Win64; x64) AppleWebKit/537.36 (KHTML, like Gecko) Chrome/92.0.4515.131 Safari/537.36",1536,722,1536,864,,,,,,,,2,4.6644,0.3314815,-0.389814828,1,0,0,next_trial_button,0,60,60,30,1,landscape,visiblesun,noclouds,3,"346.3035019455253,500",
,,,,,,,gr,gr,gr,f,20,,2021-08-25_11h14.02.806,online_experiment,2021.1.4,Win32,60.08171113,IwAR0XODgFFzx-56_FZQN_QVVo5iE6vyr3Hpqwly27Ch-nEJS--suRHHQX3Vw,FALSE,,"Mozilla/5.0 (Windows NT 10.0; Win64; x64) AppleWebKit/537.36 (KHTML, like Gecko) Chrome/92.0.4515.131 Safari/537.36",1536,722,1536,864,,,,,,,,1,6.5977,0.362037056,-0.401851865,1,0,0,next_trial_button,0,61,61,28,1,landscape,invisiblesun,noclouds,3,"888.8888888888888,500",
,,,,,,,gr,gr,gr,f,20,,2021-08-25_11h14.02.806,online_experiment,2021.1.4,Win32,60.08171113,IwAR0XODgFFzx-56_FZQN_QVVo5iE6vyr3Hpqwly27Ch-nEJS--suRHHQX3Vw,FALSE,,"Mozilla/5.0 (Windows NT 10.0; Win64; x64) AppleWebKit/537.36 (KHTML, like Gecko) Chrome/92.0.4515.131 Safari/537.36",1536,722,1536,864,,,,,,,,6,4.4253,0.311111129,-0.393518532,1,0,0,next_trial_button,0,62,62,59,1,beach,visiblesun,yesclouds,7,"888.9689978370584,500",
,,,,,,,gr,gr,gr,f,20,,2021-08-25_11h14.02.806,online_experiment,2021.1.4,Win32,60.08171113,IwAR0XODgFFzx-56_FZQN_QVVo5iE6vyr3Hpqwly27Ch-nEJS--suRHHQX3Vw,FALSE,,"Mozilla/5.0 (Windows NT 10.0; Win64; x64) AppleWebKit/537.36 (KHTML, like Gecko) Chrome/92.0.4515.131 Safari/537.36",1536,722,1536,864,,,,,,,,3,7.177,0.45740754,-0.398148162,1,0,0,next_trial_button,0,63,63,9,1,beach,invisiblesun,yesclouds,1,"750,500",
,,,,,,,gr,gr,gr,f,20,,2021-08-25_11h14.02.806,online_experiment,2021.1.4,Win32,60.08171113,IwAR0XODgFFzx-56_FZQN_QVVo5iE6vyr3Hpqwly27Ch-nEJS--suRHHQX3Vw,FALSE,,"Mozilla/5.0 (Windows NT 10.0; Win64; x64) AppleWebKit/537.36 (KHTML, like Gecko) Chrome/92.0.4515.131 Safari/537.36",1536,722,1536,864,,,,,,,,1,3.9346,0.383333465,-0.420370384,1,0,0,next_trial_button,0,64,64,47,1,landscape,visiblesun,yesclouds,5,"666.6666666666666,500",
,,,,,,,gr,gr,gr,f,20,,2021-08-25_11h14.02.806,online_experiment,2021.1.4,Win32,60.08171113,IwAR0XODgFFzx-56_FZQN_QVVo5iE6vyr3Hpqwly27Ch-nEJS--suRHHQX3Vw,FALSE,,"Mozilla/5.0 (Windows NT 10.0; Win64; x64) AppleWebKit/537.36 (KHTML, like Gecko) Chrome/92.0.4515.131 Safari/537.36",1536,722,1536,864,,,,,,,,3,5.9695,0.403703723,-0.414814828,1,0,0,next_trial_button,0,65,65,5,1,landscape,invisiblesun,yesclouds,0,"750.4690431519699,500",
,,,,,,,gr,gr,gr,f,20,,2021-08-25_11h14.02.806,online_experiment,2021.1.4,Win32,60.08171113,IwAR0XODgFFzx-56_FZQN_QVVo5iE6vyr3Hpqwly27Ch-nEJS--suRHHQX3Vw,FALSE,,"Mozilla/5.0 (Windows NT 10.0; Win64; x64) AppleWebKit/537.36 (KHTML, like Gecko) Chrome/92.0.4515.131 Safari/537.36",1536,722,1536,864,,,,,,,,6,9.3483,0.334259277,-0.448148162,1,0,0,next_trial_button,0,66,66,32,1,beach,invisiblesun,noclouds,4,"750,500",
,,,,,,,gr,gr,gr,f,20,,2021-08-25_11h14.02.806,online_experiment,2021.1.4,Win32,60.08171113,IwAR0XODgFFzx-56_FZQN_QVVo5iE6vyr3Hpqwly27Ch-nEJS--suRHHQX3Vw,FALSE,,"Mozilla/5.0 (Windows NT 10.0; Win64; x64) AppleWebKit/537.36 (KHTML, like Gecko) Chrome/92.0.4515.131 Safari/537.36",1536,722,1536,864,,,,,,,,8,4.4987,0.377777797,-0.419444458,1,0,0,next_trial_button,0,67,67,71,1,landscape,visiblesun,yesclouds,8,"666.6666666666666,500",
,,,,,,,gr,gr,gr,f,20,,2021-08-25_11h14.02.806,online_experiment,2021.1.4,Win32,60.08171113,IwAR0XODgFFzx-56_FZQN_QVVo5iE6vyr3Hpqwly27Ch-nEJS--suRHHQX3Vw,FALSE,,"Mozilla/5.0 (Windows NT 10.0; Win64; x64) AppleWebKit/537.36 (KHTML, like Gecko) Chrome/92.0.4515.131 Safari/537.36",1536,722,1536,864,,,,,,,,3,3.9129,0.357407426,-0.427777848,1,0,0,next_trial_button,0,68,68,40,1,beach,invisiblesun,noclouds,5,"1028.5714285714284,500",
,,,,,,,gr,gr,gr,f,20,,2021-08-25_11h14.02.806,online_experiment,2021.1.4,Win32,60.08171113,IwAR0XODgFFzx-56_FZQN_QVVo5iE6vyr3Hpqwly27Ch-nEJS--suRHHQX3Vw,FALSE,,"Mozilla/5.0 (Windows NT 10.0; Win64; x64) AppleWebKit/537.36 (KHTML, like Gecko) Chrome/92.0.4515.131 Safari/537.36",1536,722,1536,864,,,,,,,,8,4.728,0.38611113,-0.441666737,1,0,0,next_trial_button,0,69,69,69,1,landscape,invisiblesun,yesclouds,8,"750,500",
,,,,,,,gr,gr,gr,f,20,,2021-08-25_11h14.02.806,online_experiment,2021.1.4,Win32,60.08171113,IwAR0XODgFFzx-56_FZQN_QVVo5iE6vyr3Hpqwly27Ch-nEJS--suRHHQX3Vw,FALSE,,"Mozilla/5.0 (Windows NT 10.0; Win64; x64) AppleWebKit/537.36 (KHTML, like Gecko) Chrome/92.0.4515.131 Safari/537.36",1536,722,1536,864,,,,,,,,1,4.739,0.408333353,-0.42592594,1,0,0,next_trial_button,0,70,70,68,1,landscape,invisiblesun,noclouds,8,"666.6666666666666,500",
,,,,,,,gr,gr,gr,f,20,,2021-08-25_11h14.02.806,online_experiment,2021.1.4,Win32,60.08171113,IwAR0XODgFFzx-56_FZQN_QVVo5iE6vyr3Hpqwly27Ch-nEJS--suRHHQX3Vw,FALSE,,"Mozilla/5.0 (Windows NT 10.0; Win64; x64) AppleWebKit/537.36 (KHTML, like Gecko) Chrome/92.0.4515.131 Safari/537.36",1536,722,1536,864,,,,,,,,3,7.4828,0.32222224,-0.390740811,1,0,0,next_trial_button,0,71,71,74,1,beach,visiblesun,noclouds,9,"1028.5714285714284,500",
,,,,,,,gr,gr,gr,f,20,,2021-08-25_11h14.02.806,online_experiment,2021.1.4,Win32,60.08171113,IwAR0XODgFFzx-56_FZQN_QVVo5iE6vyr3Hpqwly27Ch-nEJS--suRHHQX3Vw,FALSE,,"Mozilla/5.0 (Windows NT 10.0; Win64; x64) AppleWebKit/537.36 (KHTML, like Gecko) Chrome/92.0.4515.131 Safari/537.36",1536,722,1536,864,,,,,,,,3,4.9482,0.374074206,-0.432407478,1,0,0,next_trial_button,0,72,72,79,1,landscape,visiblesun,yesclouds,9,"1028.5714285714284,500",
,,,,,,,gr,gr,gr,f,20,,2021-08-25_11h14.02.806,online_experiment,2021.1.4,Win32,60.08171113,IwAR0XODgFFzx-56_FZQN_QVVo5iE6vyr3Hpqwly27Ch-nEJS--suRHHQX3Vw,FALSE,,"Mozilla/5.0 (Windows NT 10.0; Win64; x64) AppleWebKit/537.36 (KHTML, like Gecko) Chrome/92.0.4515.131 Safari/537.36",1536,722,1536,864,,,,,,,,9,3.37,0.453703724,-0.448148162,1,0,0,next_trial_button,0,73,73,12,1,landscape,invisiblesun,noclouds,1,"666.6666666666666,500",
,,,,,,,gr,gr,gr,f,20,,2021-08-25_11h14.02.806,online_experiment,2021.1.4,Win32,60.08171113,IwAR0XODgFFzx-56_FZQN_QVVo5iE6vyr3Hpqwly27Ch-nEJS--suRHHQX3Vw,FALSE,,"Mozilla/5.0 (Windows NT 10.0; Win64; x64) AppleWebKit/537.36 (KHTML, like Gecko) Chrome/92.0.4515.131 Safari/537.36",1536,722,1536,864,,,,,,,,3,9.1305,0.364814947,-0.437037108,1,0,0,next_trial_button,0,74,74,66,1,beach,visiblesun,noclouds,8,"1028.5714285714284,500",
,,,,,,,gr,gr,gr,f,20,,2021-08-25_11h14.02.806,online_experiment,2021.1.4,Win32,60.08171113,IwAR0XODgFFzx-56_FZQN_QVVo5iE6vyr3Hpqwly27Ch-nEJS--suRHHQX3Vw,FALSE,,"Mozilla/5.0 (Windows NT 10.0; Win64; x64) AppleWebKit/537.36 (KHTML, like Gecko) Chrome/92.0.4515.131 Safari/537.36",1536,722,1536,864,,,,,,,,3,4.3913,0.399074093,-0.39537044,1,0,0,next_trial_button,0,75,75,15,1,landscape,visiblesun,yesclouds,1,"333.3333333333333,500",
,,,,,,,gr,gr,gr,f,20,,2021-08-25_11h14.02.806,online_experiment,2021.1.4,Win32,60.08171113,IwAR0XODgFFzx-56_FZQN_QVVo5iE6vyr3Hpqwly27Ch-nEJS--suRHHQX3Vw,FALSE,,"Mozilla/5.0 (Windows NT 10.0; Win64; x64) AppleWebKit/537.36 (KHTML, like Gecko) Chrome/92.0.4515.131 Safari/537.36",1536,722,1536,864,,,,,,,,7,7.6351,0.380555574,-0.417592606,1,0,0,next_trial_button,0,76,76,39,1,landscape,visiblesun,yesclouds,4,"749.7656982193065,500",
,,,,,,,gr,gr,gr,f,20,,2021-08-25_11h14.02.806,online_experiment,2021.1.4,Win32,60.08171113,IwAR0XODgFFzx-56_FZQN_QVVo5iE6vyr3Hpqwly27Ch-nEJS--suRHHQX3Vw,FALSE,,"Mozilla/5.0 (Windows NT 10.0; Win64; x64) AppleWebKit/537.36 (KHTML, like Gecko) Chrome/92.0.4515.131 Safari/537.36",1536,722,1536,864,,,,,,,,1,7.4244,0.425000133,-0.405555569,1,0,0,next_trial_button,0,77,77,60,1,landscape,invisiblesun,noclouds,7,"666.7268134247564,500",
,,,,,,,gr,gr,gr,f,20,,2021-08-25_11h14.02.806,online_experiment,2021.1.4,Win32,60.08171113,IwAR0XODgFFzx-56_FZQN_QVVo5iE6vyr3Hpqwly27Ch-nEJS--suRHHQX3Vw,FALSE,,"Mozilla/5.0 (Windows NT 10.0; Win64; x64) AppleWebKit/537.36 (KHTML, like Gecko) Chrome/92.0.4515.131 Safari/537.36",1536,722,1536,864,,,,,,,,3,7.7535,0.409259279,-0.408333347,1,0,0,next_trial_button,0,78,78,19,1,beach,visiblesun,yesclouds,2,"770.1393095093882,500",
,,,,,,,gr,gr,gr,f,20,,2021-08-25_11h14.02.806,online_experiment,2021.1.4,Win32,60.08171113,IwAR0XODgFFzx-56_FZQN_QVVo5iE6vyr3Hpqwly27Ch-nEJS--suRHHQX3Vw,FALSE,,"Mozilla/5.0 (Windows NT 10.0; Win64; x64) AppleWebKit/537.36 (KHTML, like Gecko) Chrome/92.0.4515.131 Safari/537.36",1536,722,1536,864,,,,,,,,7,3.5156,0.431481501,-0.380555569,1,0,0,next_trial_button,0,79,79,27,1,beach,visiblesun,yesclouds,3,"752.8089887640449,500",
,,,,,,,gr,gr,gr,f,20,,2021-08-25_11h14.02.806,online_experiment,2021.1.4,Win32,60.08171113,IwAR0XODgFFzx-56_FZQN_QVVo5iE6vyr3Hpqwly27Ch-nEJS--suRHHQX3Vw,FALSE,,"Mozilla/5.0 (Windows NT 10.0; Win64; x64) AppleWebKit/537.36 (KHTML, like Gecko) Chrome/92.0.4515.131 Safari/537.36",1536,722,1536,864,,,,,,,,,,,,,,,,,,,,,,,,,"752.8089887640449,500",683.5254
