language_mouse.x,language_mouse.y,language_mouse.leftButton,language_mouse.midButton,language_mouse.rightButton,language_mouse.time,language_mouse.clicked_name,nationality,mother_tongue,homeland,gender,age,email,date,expName,psychopyVersion,OS,frameRate,fbclid,cancel_experiment,cancel_reasons,client_agent_information,windowWidth,windowHeight,xRes,yRes,start_exp_mouse.x,start_exp_mouse.y,start_exp_mouse.leftButton,start_exp_mouse.midButton,start_exp_mouse.rightButton,start_exp_mouse.time,start_exp_mouse.clicked_name,rating_slider.response,rating_slider.rt,next_trial_mouse.x,next_trial_mouse.y,next_trial_mouse.leftButton,next_trial_mouse.midButton,next_trial_mouse.rightButton,next_trial_mouse.clicked_name,trials.thisRepN,trials.thisTrialN,trials.thisN,trials.thisIndex,trials.ran,environment,sunVisibility,cloudVisibility,imageId,imgSize,globalClockTime
0.302083333,-0.217447917,1,0,0,4.6229,gr_flag,gr,gr,gr,m,22,,2021-07-08_21h26.34.670,online_experiment,2021.1.4,Win32,29.9850075,IwAR0bACSzbGwuRpKQz-znwBHQs1D838_S3NeYnQjXcYZPqC4mDCwHnP7Bo7Q,FALSE,,"Mozilla/5.0 (Windows NT 10.0; Win64; x64) AppleWebKit/537.36 (KHTML, like Gecko) Chrome/91.0.4472.124 Safari/537.36",1366,657,1366,768,,,,,,,,,,,,,,,,,,,,,,,,,,
,,,,,,,gr,gr,gr,m,22,,2021-07-08_21h26.34.670,online_experiment,2021.1.4,Win32,29.9850075,IwAR0bACSzbGwuRpKQz-znwBHQs1D838_S3NeYnQjXcYZPqC4mDCwHnP7Bo7Q,FALSE,,"Mozilla/5.0 (Windows NT 10.0; Win64; x64) AppleWebKit/537.36 (KHTML, like Gecko) Chrome/91.0.4472.124 Safari/537.36",1366,657,1366,768,-0.028645833,-0.358072917,1,0,0,12.0092,start_button,2,10.912,0.451822917,-0.416666667,1,0,0,next_trial_button,0,0,0,28,1,landscape,invisiblesun,noclouds,3,"888.8888888888888,500",
,,,,,,,gr,gr,gr,m,22,,2021-07-08_21h26.34.670,online_experiment,2021.1.4,Win32,29.9850075,IwAR0bACSzbGwuRpKQz-znwBHQs1D838_S3NeYnQjXcYZPqC4mDCwHnP7Bo7Q,FALSE,,"Mozilla/5.0 (Windows NT 10.0; Win64; x64) AppleWebKit/537.36 (KHTML, like Gecko) Chrome/91.0.4472.124 Safari/537.36",1366,657,1366,768,,,,,,,,7,6.5155,0.37109375,-0.436197917,1,0,0,next_trial_button,0,1,1,14,1,landscape,visiblesun,noclouds,1,"745.9919839679359,500",
,,,,,,,gr,gr,gr,m,22,,2021-07-08_21h26.34.670,online_experiment,2021.1.4,Win32,29.9850075,IwAR0bACSzbGwuRpKQz-znwBHQs1D838_S3NeYnQjXcYZPqC4mDCwHnP7Bo7Q,FALSE,,"Mozilla/5.0 (Windows NT 10.0; Win64; x64) AppleWebKit/537.36 (KHTML, like Gecko) Chrome/91.0.4472.124 Safari/537.36",1366,657,1366,768,,,,,,,,3,4.8448,0.3515625,-0.404947917,1,0,0,next_trial_button,0,2,2,44,1,landscape,invisiblesun,noclouds,5,"666.6666666666666,500",
,,,,,,,gr,gr,gr,m,22,,2021-07-08_21h26.34.670,online_experiment,2021.1.4,Win32,29.9850075,IwAR0bACSzbGwuRpKQz-znwBHQs1D838_S3NeYnQjXcYZPqC4mDCwHnP7Bo7Q,FALSE,,"Mozilla/5.0 (Windows NT 10.0; Win64; x64) AppleWebKit/537.36 (KHTML, like Gecko) Chrome/91.0.4472.124 Safari/537.36",1366,657,1366,768,,,,,,,,9,3.7045,0.41796875,-0.454427083,1,0,0,next_trial_button,0,3,3,65,1,beach,invisiblesun,yesclouds,8,"750,500",
,,,,,,,gr,gr,gr,m,22,,2021-07-08_21h26.34.670,online_experiment,2021.1.4,Win32,29.9850075,IwAR0bACSzbGwuRpKQz-znwBHQs1D838_S3NeYnQjXcYZPqC4mDCwHnP7Bo7Q,FALSE,,"Mozilla/5.0 (Windows NT 10.0; Win64; x64) AppleWebKit/537.36 (KHTML, like Gecko) Chrome/91.0.4472.124 Safari/537.36",1366,657,1366,768,,,,,,,,4,3.5602,0.354166667,-0.420572917,1,0,0,next_trial_button,0,4,4,38,1,landscape,visiblesun,noclouds,4,"733.3333333333333,500",
,,,,,,,gr,gr,gr,m,22,,2021-07-08_21h26.34.670,online_experiment,2021.1.4,Win32,29.9850075,IwAR0bACSzbGwuRpKQz-znwBHQs1D838_S3NeYnQjXcYZPqC4mDCwHnP7Bo7Q,FALSE,,"Mozilla/5.0 (Windows NT 10.0; Win64; x64) AppleWebKit/537.36 (KHTML, like Gecko) Chrome/91.0.4472.124 Safari/537.36",1366,657,1366,768,,,,,,,,7,3.6521,0.42578125,-0.4296875,1,0,0,next_trial_button,0,5,5,24,1,beach,invisiblesun,noclouds,3,"750.089190153407,500",
,,,,,,,gr,gr,gr,m,22,,2021-07-08_21h26.34.670,online_experiment,2021.1.4,Win32,29.9850075,IwAR0bACSzbGwuRpKQz-znwBHQs1D838_S3NeYnQjXcYZPqC4mDCwHnP7Bo7Q,FALSE,,"Mozilla/5.0 (Windows NT 10.0; Win64; x64) AppleWebKit/537.36 (KHTML, like Gecko) Chrome/91.0.4472.124 Safari/537.36",1366,657,1366,768,,,,,,,,3,2.741,0.321614583,-0.412760417,1,0,0,next_trial_button,0,6,6,78,1,landscape,visiblesun,noclouds,9,"666.6666666666666,500",
,,,,,,,gr,gr,gr,m,22,,2021-07-08_21h26.34.670,online_experiment,2021.1.4,Win32,29.9850075,IwAR0bACSzbGwuRpKQz-znwBHQs1D838_S3NeYnQjXcYZPqC4mDCwHnP7Bo7Q,FALSE,,"Mozilla/5.0 (Windows NT 10.0; Win64; x64) AppleWebKit/537.36 (KHTML, like Gecko) Chrome/91.0.4472.124 Safari/537.36",1366,657,1366,768,,,,,,,,8,5.0668,0.404947917,-0.4296875,1,0,0,next_trial_button,0,7,7,57,1,beach,invisiblesun,yesclouds,7,"749.707488299532,500",
,,,,,,,gr,gr,gr,m,22,,2021-07-08_21h26.34.670,online_experiment,2021.1.4,Win32,29.9850075,IwAR0bACSzbGwuRpKQz-znwBHQs1D838_S3NeYnQjXcYZPqC4mDCwHnP7Bo7Q,FALSE,,"Mozilla/5.0 (Windows NT 10.0; Win64; x64) AppleWebKit/537.36 (KHTML, like Gecko) Chrome/91.0.4472.124 Safari/537.36",1366,657,1366,768,,,,,,,,8,2.1139,0.475260417,-0.424479167,1,0,0,next_trial_button,0,8,8,39,1,landscape,visiblesun,yesclouds,4,"749.7656982193065,500",
,,,,,,,gr,gr,gr,m,22,,2021-07-08_21h26.34.670,online_experiment,2021.1.4,Win32,29.9850075,IwAR0bACSzbGwuRpKQz-znwBHQs1D838_S3NeYnQjXcYZPqC4mDCwHnP7Bo7Q,FALSE,,"Mozilla/5.0 (Windows NT 10.0; Win64; x64) AppleWebKit/537.36 (KHTML, like Gecko) Chrome/91.0.4472.124 Safari/537.36",1366,657,1366,768,,,,,,,,5,7.7293,0.397135417,-0.416666667,1,0,0,next_trial_button,0,9,9,0,1,beach,invisiblesun,noclouds,0,"750,500",
,,,,,,,gr,gr,gr,m,22,,2021-07-08_21h26.34.670,online_experiment,2021.1.4,Win32,29.9850075,IwAR0bACSzbGwuRpKQz-znwBHQs1D838_S3NeYnQjXcYZPqC4mDCwHnP7Bo7Q,FALSE,,"Mozilla/5.0 (Windows NT 10.0; Win64; x64) AppleWebKit/537.36 (KHTML, like Gecko) Chrome/91.0.4472.124 Safari/537.36",1366,657,1366,768,,,,,,,,7,6.0465,0.354166667,-0.434895833,1,0,0,next_trial_button,0,10,10,58,1,beach,visiblesun,noclouds,7,"1028.5714285714284,500",
,,,,,,,gr,gr,gr,m,22,,2021-07-08_21h26.34.670,online_experiment,2021.1.4,Win32,29.9850075,IwAR0bACSzbGwuRpKQz-znwBHQs1D838_S3NeYnQjXcYZPqC4mDCwHnP7Bo7Q,FALSE,,"Mozilla/5.0 (Windows NT 10.0; Win64; x64) AppleWebKit/537.36 (KHTML, like Gecko) Chrome/91.0.4472.124 Safari/537.36",1366,657,1366,768,,,,,,,,7,3.8566,0.45703125,-0.397135417,1,0,0,next_trial_button,0,11,11,34,1,beach,visiblesun,noclouds,4,"749.6251874062968,500",
,,,,,,,gr,gr,gr,m,22,,2021-07-08_21h26.34.670,online_experiment,2021.1.4,Win32,29.9850075,IwAR0bACSzbGwuRpKQz-znwBHQs1D838_S3NeYnQjXcYZPqC4mDCwHnP7Bo7Q,FALSE,,"Mozilla/5.0 (Windows NT 10.0; Win64; x64) AppleWebKit/537.36 (KHTML, like Gecko) Chrome/91.0.4472.124 Safari/537.36",1366,657,1366,768,,,,,,,,8,3.9433,0.380208333,-0.40234375,1,0,0,next_trial_button,0,12,12,49,1,beach,invisiblesun,yesclouds,6,"858.4474885844749,500",
,,,,,,,gr,gr,gr,m,22,,2021-07-08_21h26.34.670,online_experiment,2021.1.4,Win32,29.9850075,IwAR0bACSzbGwuRpKQz-znwBHQs1D838_S3NeYnQjXcYZPqC4mDCwHnP7Bo7Q,FALSE,,"Mozilla/5.0 (Windows NT 10.0; Win64; x64) AppleWebKit/537.36 (KHTML, like Gecko) Chrome/91.0.4472.124 Safari/537.36",1366,657,1366,768,,,,,,,,6,3.723,0.34765625,-0.419270833,1,0,0,next_trial_button,0,13,13,56,1,beach,invisiblesun,noclouds,7,"1028.5714285714284,500",
,,,,,,,gr,gr,gr,m,22,,2021-07-08_21h26.34.670,online_experiment,2021.1.4,Win32,29.9850075,IwAR0bACSzbGwuRpKQz-znwBHQs1D838_S3NeYnQjXcYZPqC4mDCwHnP7Bo7Q,FALSE,,"Mozilla/5.0 (Windows NT 10.0; Win64; x64) AppleWebKit/537.36 (KHTML, like Gecko) Chrome/91.0.4472.124 Safari/537.36",1366,657,1366,768,,,,,,,,4,3.9867,0.524739583,-0.420572917,1,0,0,next_trial_button,0,14,14,36,1,landscape,invisiblesun,noclouds,4,"281.25,500",
,,,,,,,gr,gr,gr,m,22,,2021-07-08_21h26.34.670,online_experiment,2021.1.4,Win32,29.9850075,IwAR0bACSzbGwuRpKQz-znwBHQs1D838_S3NeYnQjXcYZPqC4mDCwHnP7Bo7Q,FALSE,,"Mozilla/5.0 (Windows NT 10.0; Win64; x64) AppleWebKit/537.36 (KHTML, like Gecko) Chrome/91.0.4472.124 Safari/537.36",1366,657,1366,768,,,,,,,,4,4.3123,0.47265625,-0.421875,1,0,0,next_trial_button,0,15,15,23,1,landscape,visiblesun,yesclouds,2,"767.97829036635,500",
,,,,,,,gr,gr,gr,m,22,,2021-07-08_21h26.34.670,online_experiment,2021.1.4,Win32,29.9850075,IwAR0bACSzbGwuRpKQz-znwBHQs1D838_S3NeYnQjXcYZPqC4mDCwHnP7Bo7Q,FALSE,,"Mozilla/5.0 (Windows NT 10.0; Win64; x64) AppleWebKit/537.36 (KHTML, like Gecko) Chrome/91.0.4472.124 Safari/537.36",1366,657,1366,768,,,,,,,,4,2.3743,0.436197917,-0.41796875,1,0,0,next_trial_button,0,16,16,42,1,beach,visiblesun,noclouds,5,"834.4594594594595,500",
,,,,,,,gr,gr,gr,m,22,,2021-07-08_21h26.34.670,online_experiment,2021.1.4,Win32,29.9850075,IwAR0bACSzbGwuRpKQz-znwBHQs1D838_S3NeYnQjXcYZPqC4mDCwHnP7Bo7Q,FALSE,,"Mozilla/5.0 (Windows NT 10.0; Win64; x64) AppleWebKit/537.36 (KHTML, like Gecko) Chrome/91.0.4472.124 Safari/537.36",1366,657,1366,768,,,,,,,,6,4.3186,0.408854167,-0.408854167,1,0,0,next_trial_button,0,17,17,19,1,beach,visiblesun,yesclouds,2,"770.1393095093882,500",
,,,,,,,gr,gr,gr,m,22,,2021-07-08_21h26.34.670,online_experiment,2021.1.4,Win32,29.9850075,IwAR0bACSzbGwuRpKQz-znwBHQs1D838_S3NeYnQjXcYZPqC4mDCwHnP7Bo7Q,FALSE,,"Mozilla/5.0 (Windows NT 10.0; Win64; x64) AppleWebKit/537.36 (KHTML, like Gecko) Chrome/91.0.4472.124 Safari/537.36",1366,657,1366,768,,,,,,,,4,3.6685,0.391927083,-0.42578125,1,0,0,next_trial_button,0,18,18,25,1,beach,invisiblesun,yesclouds,3,"750.4690431519699,500",
,,,,,,,gr,gr,gr,m,22,,2021-07-08_21h26.34.670,online_experiment,2021.1.4,Win32,29.9850075,IwAR0bACSzbGwuRpKQz-znwBHQs1D838_S3NeYnQjXcYZPqC4mDCwHnP7Bo7Q,FALSE,,"Mozilla/5.0 (Windows NT 10.0; Win64; x64) AppleWebKit/537.36 (KHTML, like Gecko) Chrome/91.0.4472.124 Safari/537.36",1366,657,1366,768,,,,,,,,7,3.0196,0.358072917,-0.40625,1,0,0,next_trial_button,0,19,19,33,1,beach,invisiblesun,yesclouds,4,"751.5473032714411,500",
,,,,,,,gr,gr,gr,m,22,,2021-07-08_21h26.34.670,online_experiment,2021.1.4,Win32,29.9850075,IwAR0bACSzbGwuRpKQz-znwBHQs1D838_S3NeYnQjXcYZPqC4mDCwHnP7Bo7Q,FALSE,,"Mozilla/5.0 (Windows NT 10.0; Win64; x64) AppleWebKit/537.36 (KHTML, like Gecko) Chrome/91.0.4472.124 Safari/537.36",1366,657,1366,768,,,,,,,,9,2.0023,0.3984375,-0.377604167,1,0,0,next_trial_button,0,20,20,1,1,beach,invisiblesun,yesclouds,0,"666.6666666666666,500",
,,,,,,,gr,gr,gr,m,22,,2021-07-08_21h26.34.670,online_experiment,2021.1.4,Win32,29.9850075,IwAR0bACSzbGwuRpKQz-znwBHQs1D838_S3NeYnQjXcYZPqC4mDCwHnP7Bo7Q,FALSE,,"Mozilla/5.0 (Windows NT 10.0; Win64; x64) AppleWebKit/537.36 (KHTML, like Gecko) Chrome/91.0.4472.124 Safari/537.36",1366,657,1366,768,,,,,,,,9,5.3611,0.372395833,-0.415364583,1,0,0,next_trial_button,0,21,21,4,1,landscape,invisiblesun,noclouds,0,"1499.6127033307514,500",
,,,,,,,gr,gr,gr,m,22,,2021-07-08_21h26.34.670,online_experiment,2021.1.4,Win32,29.9850075,IwAR0bACSzbGwuRpKQz-znwBHQs1D838_S3NeYnQjXcYZPqC4mDCwHnP7Bo7Q,FALSE,,"Mozilla/5.0 (Windows NT 10.0; Win64; x64) AppleWebKit/537.36 (KHTML, like Gecko) Chrome/91.0.4472.124 Safari/537.36",1366,657,1366,768,,,,,,,,5,4.7938,0.463541667,-0.411458333,1,0,0,next_trial_button,0,22,22,55,1,landscape,visiblesun,yesclouds,6,"749.8819083608881,500",
,,,,,,,gr,gr,gr,m,22,,2021-07-08_21h26.34.670,online_experiment,2021.1.4,Win32,29.9850075,IwAR0bACSzbGwuRpKQz-znwBHQs1D838_S3NeYnQjXcYZPqC4mDCwHnP7Bo7Q,FALSE,,"Mozilla/5.0 (Windows NT 10.0; Win64; x64) AppleWebKit/537.36 (KHTML, like Gecko) Chrome/91.0.4472.124 Safari/537.36",1366,657,1366,768,,,,,,,,6,3.59,0.415364583,-0.419270833,1,0,0,next_trial_button,0,23,23,22,1,landscape,visiblesun,noclouds,2,"749.3333333333333,500",
,,,,,,,gr,gr,gr,m,22,,2021-07-08_21h26.34.670,online_experiment,2021.1.4,Win32,29.9850075,IwAR0bACSzbGwuRpKQz-znwBHQs1D838_S3NeYnQjXcYZPqC4mDCwHnP7Bo7Q,FALSE,,"Mozilla/5.0 (Windows NT 10.0; Win64; x64) AppleWebKit/537.36 (KHTML, like Gecko) Chrome/91.0.4472.124 Safari/537.36",1366,657,1366,768,,,,,,,,7,3.3698,0.466145833,-0.421875,1,0,0,next_trial_button,0,24,24,16,1,beach,invisiblesun,noclouds,2,"752.8089887640449,500",
,,,,,,,gr,gr,gr,m,22,,2021-07-08_21h26.34.670,online_experiment,2021.1.4,Win32,29.9850075,IwAR0bACSzbGwuRpKQz-znwBHQs1D838_S3NeYnQjXcYZPqC4mDCwHnP7Bo7Q,FALSE,,"Mozilla/5.0 (Windows NT 10.0; Win64; x64) AppleWebKit/537.36 (KHTML, like Gecko) Chrome/91.0.4472.124 Safari/537.36",1366,657,1366,768,,,,,,,,4,2.2759,0.391927083,-0.419270833,1,0,0,next_trial_button,0,25,25,10,1,beach,visiblesun,noclouds,1,"747.0261697065821,500",
,,,,,,,gr,gr,gr,m,22,,2021-07-08_21h26.34.670,online_experiment,2021.1.4,Win32,29.9850075,IwAR0bACSzbGwuRpKQz-znwBHQs1D838_S3NeYnQjXcYZPqC4mDCwHnP7Bo7Q,FALSE,,"Mozilla/5.0 (Windows NT 10.0; Win64; x64) AppleWebKit/537.36 (KHTML, like Gecko) Chrome/91.0.4472.124 Safari/537.36",1366,657,1366,768,,,,,,,,6,4.8761,0.39453125,-0.407552083,1,0,0,next_trial_button,0,26,26,27,1,beach,visiblesun,yesclouds,3,"752.8089887640449,500",
,,,,,,,gr,gr,gr,m,22,,2021-07-08_21h26.34.670,online_experiment,2021.1.4,Win32,29.9850075,IwAR0bACSzbGwuRpKQz-znwBHQs1D838_S3NeYnQjXcYZPqC4mDCwHnP7Bo7Q,FALSE,,"Mozilla/5.0 (Windows NT 10.0; Win64; x64) AppleWebKit/537.36 (KHTML, like Gecko) Chrome/91.0.4472.124 Safari/537.36",1366,657,1366,768,,,,,,,,5,3.298,0.528645833,-0.415364583,1,0,0,next_trial_button,0,27,27,74,1,beach,visiblesun,noclouds,9,"1028.5714285714284,500",
,,,,,,,gr,gr,gr,m,22,,2021-07-08_21h26.34.670,online_experiment,2021.1.4,Win32,29.9850075,IwAR0bACSzbGwuRpKQz-znwBHQs1D838_S3NeYnQjXcYZPqC4mDCwHnP7Bo7Q,FALSE,,"Mozilla/5.0 (Windows NT 10.0; Win64; x64) AppleWebKit/537.36 (KHTML, like Gecko) Chrome/91.0.4472.124 Safari/537.36",1366,657,1366,768,,,,,,,,6,2.9208,0.352864583,-0.403645833,1,0,0,next_trial_button,0,28,28,3,1,beach,visiblesun,yesclouds,0,"1152.5122276567363,500",
,,,,,,,gr,gr,gr,m,22,,2021-07-08_21h26.34.670,online_experiment,2021.1.4,Win32,29.9850075,IwAR0bACSzbGwuRpKQz-znwBHQs1D838_S3NeYnQjXcYZPqC4mDCwHnP7Bo7Q,FALSE,,"Mozilla/5.0 (Windows NT 10.0; Win64; x64) AppleWebKit/537.36 (KHTML, like Gecko) Chrome/91.0.4472.124 Safari/537.36",1366,657,1366,768,,,,,,,,7,1.9871,0.352864583,-0.415364583,1,0,0,next_trial_button,0,29,29,43,1,beach,visiblesun,yesclouds,5,"750,500",
,,,,,,,gr,gr,gr,m,22,,2021-07-08_21h26.34.670,online_experiment,2021.1.4,Win32,29.9850075,IwAR0bACSzbGwuRpKQz-znwBHQs1D838_S3NeYnQjXcYZPqC4mDCwHnP7Bo7Q,FALSE,,"Mozilla/5.0 (Windows NT 10.0; Win64; x64) AppleWebKit/537.36 (KHTML, like Gecko) Chrome/91.0.4472.124 Safari/537.36",1366,657,1366,768,,,,,,,,6,3.3782,0.3046875,-0.391927083,1,0,0,next_trial_button,0,30,30,31,1,landscape,visiblesun,yesclouds,3,"638.0622837370242,500",
,,,,,,,gr,gr,gr,m,22,,2021-07-08_21h26.34.670,online_experiment,2021.1.4,Win32,29.9850075,IwAR0bACSzbGwuRpKQz-znwBHQs1D838_S3NeYnQjXcYZPqC4mDCwHnP7Bo7Q,FALSE,,"Mozilla/5.0 (Windows NT 10.0; Win64; x64) AppleWebKit/537.36 (KHTML, like Gecko) Chrome/91.0.4472.124 Safari/537.36",1366,657,1366,768,,,,,,,,3,5.1261,0.368489583,-0.408854167,1,0,0,next_trial_button,0,31,31,29,1,landscape,invisiblesun,yesclouds,3,"749.8660953401178,500",
,,,,,,,gr,gr,gr,m,22,,2021-07-08_21h26.34.670,online_experiment,2021.1.4,Win32,29.9850075,IwAR0bACSzbGwuRpKQz-znwBHQs1D838_S3NeYnQjXcYZPqC4mDCwHnP7Bo7Q,FALSE,,"Mozilla/5.0 (Windows NT 10.0; Win64; x64) AppleWebKit/537.36 (KHTML, like Gecko) Chrome/91.0.4472.124 Safari/537.36",1366,657,1366,768,,,,,,,,5,3.4133,0.450520833,-0.42578125,1,0,0,next_trial_button,0,32,32,9,1,beach,invisiblesun,yesclouds,1,"750,500",
,,,,,,,gr,gr,gr,m,22,,2021-07-08_21h26.34.670,online_experiment,2021.1.4,Win32,29.9850075,IwAR0bACSzbGwuRpKQz-znwBHQs1D838_S3NeYnQjXcYZPqC4mDCwHnP7Bo7Q,FALSE,,"Mozilla/5.0 (Windows NT 10.0; Win64; x64) AppleWebKit/537.36 (KHTML, like Gecko) Chrome/91.0.4472.124 Safari/537.36",1366,657,1366,768,,,,,,,,4,2.1209,0.299479167,-0.40234375,1,0,0,next_trial_button,0,33,33,72,1,beach,invisiblesun,noclouds,9,"888.8888888888888,500",
,,,,,,,gr,gr,gr,m,22,,2021-07-08_21h26.34.670,online_experiment,2021.1.4,Win32,29.9850075,IwAR0bACSzbGwuRpKQz-znwBHQs1D838_S3NeYnQjXcYZPqC4mDCwHnP7Bo7Q,FALSE,,"Mozilla/5.0 (Windows NT 10.0; Win64; x64) AppleWebKit/537.36 (KHTML, like Gecko) Chrome/91.0.4472.124 Safari/537.36",1366,657,1366,768,,,,,,,,2,2.3539,0.39453125,-0.3984375,1,0,0,next_trial_button,0,34,34,52,1,landscape,invisiblesun,noclouds,6,"666.6666666666666,500",
,,,,,,,gr,gr,gr,m,22,,2021-07-08_21h26.34.670,online_experiment,2021.1.4,Win32,29.9850075,IwAR0bACSzbGwuRpKQz-znwBHQs1D838_S3NeYnQjXcYZPqC4mDCwHnP7Bo7Q,FALSE,,"Mozilla/5.0 (Windows NT 10.0; Win64; x64) AppleWebKit/537.36 (KHTML, like Gecko) Chrome/91.0.4472.124 Safari/537.36",1366,657,1366,768,,,,,,,,5,6.9869,0.454427083,-0.403645833,1,0,0,next_trial_button,0,35,35,13,1,landscape,invisiblesun,yesclouds,1,"783.1192660550458,500",
,,,,,,,gr,gr,gr,m,22,,2021-07-08_21h26.34.670,online_experiment,2021.1.4,Win32,29.9850075,IwAR0bACSzbGwuRpKQz-znwBHQs1D838_S3NeYnQjXcYZPqC4mDCwHnP7Bo7Q,FALSE,,"Mozilla/5.0 (Windows NT 10.0; Win64; x64) AppleWebKit/537.36 (KHTML, like Gecko) Chrome/91.0.4472.124 Safari/537.36",1366,657,1366,768,,,,,,,,1,3.1285,0.432291667,-0.430989583,1,0,0,next_trial_button,0,36,36,60,1,landscape,invisiblesun,noclouds,7,"666.7268134247564,500",
,,,,,,,gr,gr,gr,m,22,,2021-07-08_21h26.34.670,online_experiment,2021.1.4,Win32,29.9850075,IwAR0bACSzbGwuRpKQz-znwBHQs1D838_S3NeYnQjXcYZPqC4mDCwHnP7Bo7Q,FALSE,,"Mozilla/5.0 (Windows NT 10.0; Win64; x64) AppleWebKit/537.36 (KHTML, like Gecko) Chrome/91.0.4472.124 Safari/537.36",1366,657,1366,768,,,,,,,,2,2.581,0.44140625,-0.401041667,1,0,0,next_trial_button,0,37,37,48,1,beach,invisiblesun,noclouds,6,"1028.5714285714284,500",
,,,,,,,gr,gr,gr,m,22,,2021-07-08_21h26.34.670,online_experiment,2021.1.4,Win32,29.9850075,IwAR0bACSzbGwuRpKQz-znwBHQs1D838_S3NeYnQjXcYZPqC4mDCwHnP7Bo7Q,FALSE,,"Mozilla/5.0 (Windows NT 10.0; Win64; x64) AppleWebKit/537.36 (KHTML, like Gecko) Chrome/91.0.4472.124 Safari/537.36",1366,657,1366,768,,,,,,,,5,4.1412,0.50390625,-0.424479167,1,0,0,next_trial_button,0,38,38,53,1,landscape,invisiblesun,yesclouds,6,"750.0695023630803,500",
,,,,,,,gr,gr,gr,m,22,,2021-07-08_21h26.34.670,online_experiment,2021.1.4,Win32,29.9850075,IwAR0bACSzbGwuRpKQz-znwBHQs1D838_S3NeYnQjXcYZPqC4mDCwHnP7Bo7Q,FALSE,,"Mozilla/5.0 (Windows NT 10.0; Win64; x64) AppleWebKit/537.36 (KHTML, like Gecko) Chrome/91.0.4472.124 Safari/537.36",1366,657,1366,768,,,,,,,,2,2.3093,0.36328125,-0.397135417,1,0,0,next_trial_button,0,39,39,68,1,landscape,invisiblesun,noclouds,8,"666.6666666666666,500",
,,,,,,,gr,gr,gr,m,22,,2021-07-08_21h26.34.670,online_experiment,2021.1.4,Win32,29.9850075,IwAR0bACSzbGwuRpKQz-znwBHQs1D838_S3NeYnQjXcYZPqC4mDCwHnP7Bo7Q,FALSE,,"Mozilla/5.0 (Windows NT 10.0; Win64; x64) AppleWebKit/537.36 (KHTML, like Gecko) Chrome/91.0.4472.124 Safari/537.36",1366,657,1366,768,,,,,,,,6,2.894,0.393229167,-0.37109375,1,0,0,next_trial_button,0,40,40,47,1,landscape,visiblesun,yesclouds,5,"666.6666666666666,500",
,,,,,,,gr,gr,gr,m,22,,2021-07-08_21h26.34.670,online_experiment,2021.1.4,Win32,29.9850075,IwAR0bACSzbGwuRpKQz-znwBHQs1D838_S3NeYnQjXcYZPqC4mDCwHnP7Bo7Q,FALSE,,"Mozilla/5.0 (Windows NT 10.0; Win64; x64) AppleWebKit/537.36 (KHTML, like Gecko) Chrome/91.0.4472.124 Safari/537.36",1366,657,1366,768,,,,,,,,6,2.3376,0.311197917,-0.407552083,1,0,0,next_trial_button,0,41,41,30,1,landscape,visiblesun,noclouds,3,"346.3035019455253,500",
,,,,,,,gr,gr,gr,m,22,,2021-07-08_21h26.34.670,online_experiment,2021.1.4,Win32,29.9850075,IwAR0bACSzbGwuRpKQz-znwBHQs1D838_S3NeYnQjXcYZPqC4mDCwHnP7Bo7Q,FALSE,,"Mozilla/5.0 (Windows NT 10.0; Win64; x64) AppleWebKit/537.36 (KHTML, like Gecko) Chrome/91.0.4472.124 Safari/537.36",1366,657,1366,768,,,,,,,,7,3.3523,0.388020833,-0.397135417,1,0,0,next_trial_button,0,42,42,15,1,landscape,visiblesun,yesclouds,1,"333.3333333333333,500",
,,,,,,,gr,gr,gr,m,22,,2021-07-08_21h26.34.670,online_experiment,2021.1.4,Win32,29.9850075,IwAR0bACSzbGwuRpKQz-znwBHQs1D838_S3NeYnQjXcYZPqC4mDCwHnP7Bo7Q,FALSE,,"Mozilla/5.0 (Windows NT 10.0; Win64; x64) AppleWebKit/537.36 (KHTML, like Gecko) Chrome/91.0.4472.124 Safari/537.36",1366,657,1366,768,,,,,,,,8,2.0681,0.446614583,-0.423177083,1,0,0,next_trial_button,0,43,43,41,1,beach,invisiblesun,yesclouds,5,"1248.4394506866417,500",
,,,,,,,gr,gr,gr,m,22,,2021-07-08_21h26.34.670,online_experiment,2021.1.4,Win32,29.9850075,IwAR0bACSzbGwuRpKQz-znwBHQs1D838_S3NeYnQjXcYZPqC4mDCwHnP7Bo7Q,FALSE,,"Mozilla/5.0 (Windows NT 10.0; Win64; x64) AppleWebKit/537.36 (KHTML, like Gecko) Chrome/91.0.4472.124 Safari/537.36",1366,657,1366,768,,,,,,,,3,2.2517,0.354166667,-0.41015625,1,0,0,next_trial_button,0,44,44,70,1,landscape,visiblesun,noclouds,8,"666.6666666666666,500",
,,,,,,,gr,gr,gr,m,22,,2021-07-08_21h26.34.670,online_experiment,2021.1.4,Win32,29.9850075,IwAR0bACSzbGwuRpKQz-znwBHQs1D838_S3NeYnQjXcYZPqC4mDCwHnP7Bo7Q,FALSE,,"Mozilla/5.0 (Windows NT 10.0; Win64; x64) AppleWebKit/537.36 (KHTML, like Gecko) Chrome/91.0.4472.124 Safari/537.36",1366,657,1366,768,,,,,,,,4,3.8661,0.459635417,-0.444010417,1,0,0,next_trial_button,0,45,45,17,1,beach,invisiblesun,yesclouds,2,"684.8635235732011,500",
,,,,,,,gr,gr,gr,m,22,,2021-07-08_21h26.34.670,online_experiment,2021.1.4,Win32,29.9850075,IwAR0bACSzbGwuRpKQz-znwBHQs1D838_S3NeYnQjXcYZPqC4mDCwHnP7Bo7Q,FALSE,,"Mozilla/5.0 (Windows NT 10.0; Win64; x64) AppleWebKit/537.36 (KHTML, like Gecko) Chrome/91.0.4472.124 Safari/537.36",1366,657,1366,768,,,,,,,,3,2.5961,0.376302083,-0.4296875,1,0,0,next_trial_button,0,46,46,63,1,landscape,visiblesun,yesclouds,7,"331.94444444444446,500",
,,,,,,,gr,gr,gr,m,22,,2021-07-08_21h26.34.670,online_experiment,2021.1.4,Win32,29.9850075,IwAR0bACSzbGwuRpKQz-znwBHQs1D838_S3NeYnQjXcYZPqC4mDCwHnP7Bo7Q,FALSE,,"Mozilla/5.0 (Windows NT 10.0; Win64; x64) AppleWebKit/537.36 (KHTML, like Gecko) Chrome/91.0.4472.124 Safari/537.36",1366,657,1366,768,,,,,,,,4,4.5812,0.377604167,-0.430989583,1,0,0,next_trial_button,0,47,47,11,1,beach,visiblesun,yesclouds,1,"989.8132427843803,500",
,,,,,,,gr,gr,gr,m,22,,2021-07-08_21h26.34.670,online_experiment,2021.1.4,Win32,29.9850075,IwAR0bACSzbGwuRpKQz-znwBHQs1D838_S3NeYnQjXcYZPqC4mDCwHnP7Bo7Q,FALSE,,"Mozilla/5.0 (Windows NT 10.0; Win64; x64) AppleWebKit/537.36 (KHTML, like Gecko) Chrome/91.0.4472.124 Safari/537.36",1366,657,1366,768,,,,,,,,3,1.8026,0.46484375,-0.377604167,1,0,0,next_trial_button,0,48,48,35,1,beach,visiblesun,yesclouds,4,"750,500",
,,,,,,,gr,gr,gr,m,22,,2021-07-08_21h26.34.670,online_experiment,2021.1.4,Win32,29.9850075,IwAR0bACSzbGwuRpKQz-znwBHQs1D838_S3NeYnQjXcYZPqC4mDCwHnP7Bo7Q,FALSE,,"Mozilla/5.0 (Windows NT 10.0; Win64; x64) AppleWebKit/537.36 (KHTML, like Gecko) Chrome/91.0.4472.124 Safari/537.36",1366,657,1366,768,,,,,,,,5,3.6537,0.424479167,-0.43359375,1,0,0,next_trial_button,0,49,49,2,1,beach,visiblesun,noclouds,0,"375,500",
,,,,,,,gr,gr,gr,m,22,,2021-07-08_21h26.34.670,online_experiment,2021.1.4,Win32,29.9850075,IwAR0bACSzbGwuRpKQz-znwBHQs1D838_S3NeYnQjXcYZPqC4mDCwHnP7Bo7Q,FALSE,,"Mozilla/5.0 (Windows NT 10.0; Win64; x64) AppleWebKit/537.36 (KHTML, like Gecko) Chrome/91.0.4472.124 Safari/537.36",1366,657,1366,768,,,,,,,,5,2.1629,0.41796875,-0.40625,1,0,0,next_trial_button,0,50,50,51,1,beach,visiblesun,yesclouds,6,"657.1279916753382,500",
,,,,,,,gr,gr,gr,m,22,,2021-07-08_21h26.34.670,online_experiment,2021.1.4,Win32,29.9850075,IwAR0bACSzbGwuRpKQz-znwBHQs1D838_S3NeYnQjXcYZPqC4mDCwHnP7Bo7Q,FALSE,,"Mozilla/5.0 (Windows NT 10.0; Win64; x64) AppleWebKit/537.36 (KHTML, like Gecko) Chrome/91.0.4472.124 Safari/537.36",1366,657,1366,768,,,,,,,,6,8.1474,0.41015625,-0.4375,1,0,0,next_trial_button,0,51,51,66,1,beach,visiblesun,noclouds,8,"1028.5714285714284,500",
,,,,,,,gr,gr,gr,m,22,,2021-07-08_21h26.34.670,online_experiment,2021.1.4,Win32,29.9850075,IwAR0bACSzbGwuRpKQz-znwBHQs1D838_S3NeYnQjXcYZPqC4mDCwHnP7Bo7Q,FALSE,,"Mozilla/5.0 (Windows NT 10.0; Win64; x64) AppleWebKit/537.36 (KHTML, like Gecko) Chrome/91.0.4472.124 Safari/537.36",1366,657,1366,768,,,,,,,,4,3.604,0.5,-0.444010417,1,0,0,next_trial_button,0,52,52,54,1,landscape,visiblesun,noclouds,6,"695.0043821209465,500",
,,,,,,,gr,gr,gr,m,22,,2021-07-08_21h26.34.670,online_experiment,2021.1.4,Win32,29.9850075,IwAR0bACSzbGwuRpKQz-znwBHQs1D838_S3NeYnQjXcYZPqC4mDCwHnP7Bo7Q,FALSE,,"Mozilla/5.0 (Windows NT 10.0; Win64; x64) AppleWebKit/537.36 (KHTML, like Gecko) Chrome/91.0.4472.124 Safari/537.36",1366,657,1366,768,,,,,,,,3,10.0266,0.381510417,-0.44921875,1,0,0,next_trial_button,0,53,53,32,1,beach,invisiblesun,noclouds,4,"750,500",
,,,,,,,gr,gr,gr,m,22,,2021-07-08_21h26.34.670,online_experiment,2021.1.4,Win32,29.9850075,IwAR0bACSzbGwuRpKQz-znwBHQs1D838_S3NeYnQjXcYZPqC4mDCwHnP7Bo7Q,FALSE,,"Mozilla/5.0 (Windows NT 10.0; Win64; x64) AppleWebKit/537.36 (KHTML, like Gecko) Chrome/91.0.4472.124 Safari/537.36",1366,657,1366,768,,,,,,,,6,2.5176,0.388020833,-0.451822917,1,0,0,next_trial_button,0,54,54,26,1,beach,visiblesun,noclouds,3,"888.8888888888888,500",
,,,,,,,gr,gr,gr,m,22,,2021-07-08_21h26.34.670,online_experiment,2021.1.4,Win32,29.9850075,IwAR0bACSzbGwuRpKQz-znwBHQs1D838_S3NeYnQjXcYZPqC4mDCwHnP7Bo7Q,FALSE,,"Mozilla/5.0 (Windows NT 10.0; Win64; x64) AppleWebKit/537.36 (KHTML, like Gecko) Chrome/91.0.4472.124 Safari/537.36",1366,657,1366,768,,,,,,,,5,3.0036,0.342447917,-0.43359375,1,0,0,next_trial_button,0,55,55,62,1,landscape,visiblesun,noclouds,7,"417.42389822807814,500",
,,,,,,,gr,gr,gr,m,22,,2021-07-08_21h26.34.670,online_experiment,2021.1.4,Win32,29.9850075,IwAR0bACSzbGwuRpKQz-znwBHQs1D838_S3NeYnQjXcYZPqC4mDCwHnP7Bo7Q,FALSE,,"Mozilla/5.0 (Windows NT 10.0; Win64; x64) AppleWebKit/537.36 (KHTML, like Gecko) Chrome/91.0.4472.124 Safari/537.36",1366,657,1366,768,,,,,,,,3,3.5339,0.380208333,-0.428385417,1,0,0,next_trial_button,0,56,56,76,1,landscape,invisiblesun,noclouds,9,"1056.6037735849056,500",
,,,,,,,gr,gr,gr,m,22,,2021-07-08_21h26.34.670,online_experiment,2021.1.4,Win32,29.9850075,IwAR0bACSzbGwuRpKQz-znwBHQs1D838_S3NeYnQjXcYZPqC4mDCwHnP7Bo7Q,FALSE,,"Mozilla/5.0 (Windows NT 10.0; Win64; x64) AppleWebKit/537.36 (KHTML, like Gecko) Chrome/91.0.4472.124 Safari/537.36",1366,657,1366,768,,,,,,,,3,2.8857,0.4140625,-0.40625,1,0,0,next_trial_button,0,57,57,75,1,beach,visiblesun,yesclouds,9,"1029.6010296010297,500",
,,,,,,,gr,gr,gr,m,22,,2021-07-08_21h26.34.670,online_experiment,2021.1.4,Win32,29.9850075,IwAR0bACSzbGwuRpKQz-znwBHQs1D838_S3NeYnQjXcYZPqC4mDCwHnP7Bo7Q,FALSE,,"Mozilla/5.0 (Windows NT 10.0; Win64; x64) AppleWebKit/537.36 (KHTML, like Gecko) Chrome/91.0.4472.124 Safari/537.36",1366,657,1366,768,,,,,,,,8,2.8764,0.365885417,-0.407552083,1,0,0,next_trial_button,0,58,58,37,1,landscape,invisiblesun,yesclouds,4,"669.4214876033058,500",
,,,,,,,gr,gr,gr,m,22,,2021-07-08_21h26.34.670,online_experiment,2021.1.4,Win32,29.9850075,IwAR0bACSzbGwuRpKQz-znwBHQs1D838_S3NeYnQjXcYZPqC4mDCwHnP7Bo7Q,FALSE,,"Mozilla/5.0 (Windows NT 10.0; Win64; x64) AppleWebKit/537.36 (KHTML, like Gecko) Chrome/91.0.4472.124 Safari/537.36",1366,657,1366,768,,,,,,,,7,3.6674,0.346354167,-0.424479167,1,0,0,next_trial_button,0,59,59,6,1,landscape,visiblesun,noclouds,0,"1413.8005159071367,500",
,,,,,,,gr,gr,gr,m,22,,2021-07-08_21h26.34.670,online_experiment,2021.1.4,Win32,29.9850075,IwAR0bACSzbGwuRpKQz-znwBHQs1D838_S3NeYnQjXcYZPqC4mDCwHnP7Bo7Q,FALSE,,"Mozilla/5.0 (Windows NT 10.0; Win64; x64) AppleWebKit/537.36 (KHTML, like Gecko) Chrome/91.0.4472.124 Safari/537.36",1366,657,1366,768,,,,,,,,4,3.653,0.354166667,-0.419270833,1,0,0,next_trial_button,0,60,60,40,1,beach,invisiblesun,noclouds,5,"1028.5714285714284,500",
,,,,,,,gr,gr,gr,m,22,,2021-07-08_21h26.34.670,online_experiment,2021.1.4,Win32,29.9850075,IwAR0bACSzbGwuRpKQz-znwBHQs1D838_S3NeYnQjXcYZPqC4mDCwHnP7Bo7Q,FALSE,,"Mozilla/5.0 (Windows NT 10.0; Win64; x64) AppleWebKit/537.36 (KHTML, like Gecko) Chrome/91.0.4472.124 Safari/537.36",1366,657,1366,768,,,,,,,,4,3.8324,0.42578125,-0.412760417,1,0,0,next_trial_button,0,61,61,8,1,beach,invisiblesun,noclouds,1,"1215.1898734177216,500",
,,,,,,,gr,gr,gr,m,22,,2021-07-08_21h26.34.670,online_experiment,2021.1.4,Win32,29.9850075,IwAR0bACSzbGwuRpKQz-znwBHQs1D838_S3NeYnQjXcYZPqC4mDCwHnP7Bo7Q,FALSE,,"Mozilla/5.0 (Windows NT 10.0; Win64; x64) AppleWebKit/537.36 (KHTML, like Gecko) Chrome/91.0.4472.124 Safari/537.36",1366,657,1366,768,,,,,,,,5,2.3693,0.440104167,-0.390625,1,0,0,next_trial_button,0,62,62,7,1,landscape,visiblesun,yesclouds,0,"743.421052631579,500",
,,,,,,,gr,gr,gr,m,22,,2021-07-08_21h26.34.670,online_experiment,2021.1.4,Win32,29.9850075,IwAR0bACSzbGwuRpKQz-znwBHQs1D838_S3NeYnQjXcYZPqC4mDCwHnP7Bo7Q,FALSE,,"Mozilla/5.0 (Windows NT 10.0; Win64; x64) AppleWebKit/537.36 (KHTML, like Gecko) Chrome/91.0.4472.124 Safari/537.36",1366,657,1366,768,,,,,,,,3,2.0621,0.471354167,-0.44140625,1,0,0,next_trial_button,0,63,63,79,1,landscape,visiblesun,yesclouds,9,"1028.5714285714284,500",
,,,,,,,gr,gr,gr,m,22,,2021-07-08_21h26.34.670,online_experiment,2021.1.4,Win32,29.9850075,IwAR0bACSzbGwuRpKQz-znwBHQs1D838_S3NeYnQjXcYZPqC4mDCwHnP7Bo7Q,FALSE,,"Mozilla/5.0 (Windows NT 10.0; Win64; x64) AppleWebKit/537.36 (KHTML, like Gecko) Chrome/91.0.4472.124 Safari/537.36",1366,657,1366,768,,,,,,,,6,2.3389,0.540364583,-0.39453125,1,0,0,next_trial_button,0,64,64,64,1,beach,invisiblesun,noclouds,8,"1028.5714285714284,500",
,,,,,,,gr,gr,gr,m,22,,2021-07-08_21h26.34.670,online_experiment,2021.1.4,Win32,29.9850075,IwAR0bACSzbGwuRpKQz-znwBHQs1D838_S3NeYnQjXcYZPqC4mDCwHnP7Bo7Q,FALSE,,"Mozilla/5.0 (Windows NT 10.0; Win64; x64) AppleWebKit/537.36 (KHTML, like Gecko) Chrome/91.0.4472.124 Safari/537.36",1366,657,1366,768,,,,,,,,5,4.0492,0.454427083,-0.434895833,1,0,0,next_trial_button,0,65,65,71,1,landscape,visiblesun,yesclouds,8,"666.6666666666666,500",
,,,,,,,gr,gr,gr,m,22,,2021-07-08_21h26.34.670,online_experiment,2021.1.4,Win32,29.9850075,IwAR0bACSzbGwuRpKQz-znwBHQs1D838_S3NeYnQjXcYZPqC4mDCwHnP7Bo7Q,FALSE,,"Mozilla/5.0 (Windows NT 10.0; Win64; x64) AppleWebKit/537.36 (KHTML, like Gecko) Chrome/91.0.4472.124 Safari/537.36",1366,657,1366,768,,,,,,,,7,2.2982,0.515625,-0.395833333,1,0,0,next_trial_button,0,66,66,46,1,landscape,visiblesun,noclouds,5,"750,500",
,,,,,,,gr,gr,gr,m,22,,2021-07-08_21h26.34.670,online_experiment,2021.1.4,Win32,29.9850075,IwAR0bACSzbGwuRpKQz-znwBHQs1D838_S3NeYnQjXcYZPqC4mDCwHnP7Bo7Q,FALSE,,"Mozilla/5.0 (Windows NT 10.0; Win64; x64) AppleWebKit/537.36 (KHTML, like Gecko) Chrome/91.0.4472.124 Safari/537.36",1366,657,1366,768,,,,,,,,4,4.4595,0.438802083,-0.423177083,1,0,0,next_trial_button,0,67,67,21,1,landscape,invisiblesun,yesclouds,2,"750,500",
,,,,,,,gr,gr,gr,m,22,,2021-07-08_21h26.34.670,online_experiment,2021.1.4,Win32,29.9850075,IwAR0bACSzbGwuRpKQz-znwBHQs1D838_S3NeYnQjXcYZPqC4mDCwHnP7Bo7Q,FALSE,,"Mozilla/5.0 (Windows NT 10.0; Win64; x64) AppleWebKit/537.36 (KHTML, like Gecko) Chrome/91.0.4472.124 Safari/537.36",1366,657,1366,768,,,,,,,,6,3.6637,0.49609375,-0.404947917,1,0,0,next_trial_button,0,68,68,12,1,landscape,invisiblesun,noclouds,1,"666.6666666666666,500",
,,,,,,,gr,gr,gr,m,22,,2021-07-08_21h26.34.670,online_experiment,2021.1.4,Win32,29.9850075,IwAR0bACSzbGwuRpKQz-znwBHQs1D838_S3NeYnQjXcYZPqC4mDCwHnP7Bo7Q,FALSE,,"Mozilla/5.0 (Windows NT 10.0; Win64; x64) AppleWebKit/537.36 (KHTML, like Gecko) Chrome/91.0.4472.124 Safari/537.36",1366,657,1366,768,,,,,,,,8,2.4348,0.48046875,-0.40625,1,0,0,next_trial_button,0,69,69,61,1,landscape,invisiblesun,yesclouds,7,"500,500",
,,,,,,,gr,gr,gr,m,22,,2021-07-08_21h26.34.670,online_experiment,2021.1.4,Win32,29.9850075,IwAR0bACSzbGwuRpKQz-znwBHQs1D838_S3NeYnQjXcYZPqC4mDCwHnP7Bo7Q,FALSE,,"Mozilla/5.0 (Windows NT 10.0; Win64; x64) AppleWebKit/537.36 (KHTML, like Gecko) Chrome/91.0.4472.124 Safari/537.36",1366,657,1366,768,,,,,,,,6,2.4284,0.5390625,-0.403645833,1,0,0,next_trial_button,0,70,70,77,1,landscape,invisiblesun,yesclouds,9,"888.8888888888888,500",
,,,,,,,gr,gr,gr,m,22,,2021-07-08_21h26.34.670,online_experiment,2021.1.4,Win32,29.9850075,IwAR0bACSzbGwuRpKQz-znwBHQs1D838_S3NeYnQjXcYZPqC4mDCwHnP7Bo7Q,FALSE,,"Mozilla/5.0 (Windows NT 10.0; Win64; x64) AppleWebKit/537.36 (KHTML, like Gecko) Chrome/91.0.4472.124 Safari/537.36",1366,657,1366,768,,,,,,,,5,2.363,0.388020833,-0.404947917,1,0,0,next_trial_button,0,71,71,73,1,beach,invisiblesun,yesclouds,9,"1028.5714285714284,500",
,,,,,,,gr,gr,gr,m,22,,2021-07-08_21h26.34.670,online_experiment,2021.1.4,Win32,29.9850075,IwAR0bACSzbGwuRpKQz-znwBHQs1D838_S3NeYnQjXcYZPqC4mDCwHnP7Bo7Q,FALSE,,"Mozilla/5.0 (Windows NT 10.0; Win64; x64) AppleWebKit/537.36 (KHTML, like Gecko) Chrome/91.0.4472.124 Safari/537.36",1366,657,1366,768,,,,,,,,6,3.9514,0.333333333,-0.421875,1,0,0,next_trial_button,0,72,72,5,1,landscape,invisiblesun,yesclouds,0,"750.4690431519699,500",
,,,,,,,gr,gr,gr,m,22,,2021-07-08_21h26.34.670,online_experiment,2021.1.4,Win32,29.9850075,IwAR0bACSzbGwuRpKQz-znwBHQs1D838_S3NeYnQjXcYZPqC4mDCwHnP7Bo7Q,FALSE,,"Mozilla/5.0 (Windows NT 10.0; Win64; x64) AppleWebKit/537.36 (KHTML, like Gecko) Chrome/91.0.4472.124 Safari/537.36",1366,657,1366,768,,,,,,,,4,2.2117,0.451822917,-0.421875,1,0,0,next_trial_button,0,73,73,59,1,beach,visiblesun,yesclouds,7,"888.9689978370584,500",
,,,,,,,gr,gr,gr,m,22,,2021-07-08_21h26.34.670,online_experiment,2021.1.4,Win32,29.9850075,IwAR0bACSzbGwuRpKQz-znwBHQs1D838_S3NeYnQjXcYZPqC4mDCwHnP7Bo7Q,FALSE,,"Mozilla/5.0 (Windows NT 10.0; Win64; x64) AppleWebKit/537.36 (KHTML, like Gecko) Chrome/91.0.4472.124 Safari/537.36",1366,657,1366,768,,,,,,,,4,3.8427,0.442708333,-0.416666667,1,0,0,next_trial_button,0,74,74,20,1,landscape,invisiblesun,noclouds,2,"755.192878338279,500",
,,,,,,,gr,gr,gr,m,22,,2021-07-08_21h26.34.670,online_experiment,2021.1.4,Win32,29.9850075,IwAR0bACSzbGwuRpKQz-znwBHQs1D838_S3NeYnQjXcYZPqC4mDCwHnP7Bo7Q,FALSE,,"Mozilla/5.0 (Windows NT 10.0; Win64; x64) AppleWebKit/537.36 (KHTML, like Gecko) Chrome/91.0.4472.124 Safari/537.36",1366,657,1366,768,,,,,,,,6,3.6481,0.513020833,-0.4140625,1,0,0,next_trial_button,0,75,75,45,1,landscape,invisiblesun,yesclouds,5,"749.6251874062968,500",
,,,,,,,gr,gr,gr,m,22,,2021-07-08_21h26.34.670,online_experiment,2021.1.4,Win32,29.9850075,IwAR0bACSzbGwuRpKQz-znwBHQs1D838_S3NeYnQjXcYZPqC4mDCwHnP7Bo7Q,FALSE,,"Mozilla/5.0 (Windows NT 10.0; Win64; x64) AppleWebKit/537.36 (KHTML, like Gecko) Chrome/91.0.4472.124 Safari/537.36",1366,657,1366,768,,,,,,,,5,1.9316,0.514322917,-0.407552083,1,0,0,next_trial_button,0,76,76,69,1,landscape,invisiblesun,yesclouds,8,"750,500",
,,,,,,,gr,gr,gr,m,22,,2021-07-08_21h26.34.670,online_experiment,2021.1.4,Win32,29.9850075,IwAR0bACSzbGwuRpKQz-znwBHQs1D838_S3NeYnQjXcYZPqC4mDCwHnP7Bo7Q,FALSE,,"Mozilla/5.0 (Windows NT 10.0; Win64; x64) AppleWebKit/537.36 (KHTML, like Gecko) Chrome/91.0.4472.124 Safari/537.36",1366,657,1366,768,,,,,,,,6,2.2735,0.4921875,-0.41015625,1,0,0,next_trial_button,0,77,77,67,1,beach,visiblesun,yesclouds,8,"748.1481481481482,500",
,,,,,,,gr,gr,gr,m,22,,2021-07-08_21h26.34.670,online_experiment,2021.1.4,Win32,29.9850075,IwAR0bACSzbGwuRpKQz-znwBHQs1D838_S3NeYnQjXcYZPqC4mDCwHnP7Bo7Q,FALSE,,"Mozilla/5.0 (Windows NT 10.0; Win64; x64) AppleWebKit/537.36 (KHTML, like Gecko) Chrome/91.0.4472.124 Safari/537.36",1366,657,1366,768,,,,,,,,4,5.5268,0.506510417,-0.385416667,1,0,0,next_trial_button,0,78,78,50,1,beach,visiblesun,noclouds,6,"666.6666666666666,500",
,,,,,,,gr,gr,gr,m,22,,2021-07-08_21h26.34.670,online_experiment,2021.1.4,Win32,29.9850075,IwAR0bACSzbGwuRpKQz-znwBHQs1D838_S3NeYnQjXcYZPqC4mDCwHnP7Bo7Q,FALSE,,"Mozilla/5.0 (Windows NT 10.0; Win64; x64) AppleWebKit/537.36 (KHTML, like Gecko) Chrome/91.0.4472.124 Safari/537.36",1366,657,1366,768,,,,,,,,5,1.7394,0.467447917,-0.404947917,1,0,0,next_trial_button,0,79,79,18,1,beach,visiblesun,noclouds,2,"666.6666666666666,500",
,,,,,,,gr,gr,gr,m,22,,2021-07-08_21h26.34.670,online_experiment,2021.1.4,Win32,29.9850075,IwAR0bACSzbGwuRpKQz-znwBHQs1D838_S3NeYnQjXcYZPqC4mDCwHnP7Bo7Q,FALSE,,"Mozilla/5.0 (Windows NT 10.0; Win64; x64) AppleWebKit/537.36 (KHTML, like Gecko) Chrome/91.0.4472.124 Safari/537.36",1366,657,1366,768,,,,,,,,,,,,,,,,,,,,,,,,,"666.6666666666666,500",425.1246
