language_mouse.x,language_mouse.y,language_mouse.leftButton,language_mouse.midButton,language_mouse.rightButton,language_mouse.time,language_mouse.clicked_name,nationality,mother_tongue,homeland,gender,age,email,date,expName,psychopyVersion,OS,frameRate,fbclid,cancel_experiment,cancel_reasons,client_agent_information,windowWidth,windowHeight,xRes,yRes,start_exp_mouse.x,start_exp_mouse.y,start_exp_mouse.leftButton,start_exp_mouse.midButton,start_exp_mouse.rightButton,start_exp_mouse.time,start_exp_mouse.clicked_name,rating_slider.response,rating_slider.rt,next_trial_mouse.x,next_trial_mouse.y,next_trial_mouse.leftButton,next_trial_mouse.midButton,next_trial_mouse.rightButton,next_trial_mouse.clicked_name,trials.thisRepN,trials.thisTrialN,trials.thisN,trials.thisIndex,trials.ran,environment,sunVisibility,cloudVisibility,imageId,imgSize,globalClockTime
0.322916667,-0.205729167,1,0,0,0.5824,gr_flag,gr,gr,gr,m,22,,2021-08-31_17h16.59.845,online_experiment,2021.1.4,Win32,59.86948452,IwAR0Uk6nXaoJshW5YaQM0re79oEZ80FnkHo1co_cAeB8nPu1QNNj9VGMqg4E,FALSE,,"Mozilla/5.0 (Windows NT 10.0; Win64; x64) AppleWebKit/537.36 (KHTML, like Gecko) Chrome/92.0.4515.159 Safari/537.36",1366,657,1366,768,,,,,,,,,,,,,,,,,,,,,,,,,,
,,,,,,,gr,gr,gr,m,22,,2021-08-31_17h16.59.845,online_experiment,2021.1.4,Win32,59.86948452,IwAR0Uk6nXaoJshW5YaQM0re79oEZ80FnkHo1co_cAeB8nPu1QNNj9VGMqg4E,FALSE,,"Mozilla/5.0 (Windows NT 10.0; Win64; x64) AppleWebKit/537.36 (KHTML, like Gecko) Chrome/92.0.4515.159 Safari/537.36",1366,657,1366,768,0.055989583,-0.416666667,1,0,0,0.2504,cont_gr,9,2.5261,0.365885417,-0.4140625,1,0,0,next_trial_button,0,0,0,20,1,landscape,invisiblesun,noclouds,2,"755.192878338279,500",
,,,,,,,gr,gr,gr,m,22,,2021-08-31_17h16.59.845,online_experiment,2021.1.4,Win32,59.86948452,IwAR0Uk6nXaoJshW5YaQM0re79oEZ80FnkHo1co_cAeB8nPu1QNNj9VGMqg4E,FALSE,,"Mozilla/5.0 (Windows NT 10.0; Win64; x64) AppleWebKit/537.36 (KHTML, like Gecko) Chrome/92.0.4515.159 Safari/537.36",1366,657,1366,768,,,,,,,,7,3.1819,0.419270833,-0.4140625,1,0,0,next_trial_button,0,1,1,60,1,landscape,invisiblesun,noclouds,7,"666.7268134247564,500",
,,,,,,,gr,gr,gr,m,22,,2021-08-31_17h16.59.845,online_experiment,2021.1.4,Win32,59.86948452,IwAR0Uk6nXaoJshW5YaQM0re79oEZ80FnkHo1co_cAeB8nPu1QNNj9VGMqg4E,FALSE,,"Mozilla/5.0 (Windows NT 10.0; Win64; x64) AppleWebKit/537.36 (KHTML, like Gecko) Chrome/92.0.4515.159 Safari/537.36",1366,657,1366,768,,,,,,,,8,1.7858,0.381510417,-0.42578125,1,0,0,next_trial_button,0,2,2,9,1,beach,invisiblesun,yesclouds,1,"750,500",
,,,,,,,gr,gr,gr,m,22,,2021-08-31_17h16.59.845,online_experiment,2021.1.4,Win32,59.86948452,IwAR0Uk6nXaoJshW5YaQM0re79oEZ80FnkHo1co_cAeB8nPu1QNNj9VGMqg4E,FALSE,,"Mozilla/5.0 (Windows NT 10.0; Win64; x64) AppleWebKit/537.36 (KHTML, like Gecko) Chrome/92.0.4515.159 Safari/537.36",1366,657,1366,768,,,,,,,,8,1.8205,0.423177083,-0.41796875,1,0,0,next_trial_button,0,3,3,67,1,beach,visiblesun,yesclouds,8,"748.1481481481482,500",
,,,,,,,gr,gr,gr,m,22,,2021-08-31_17h16.59.845,online_experiment,2021.1.4,Win32,59.86948452,IwAR0Uk6nXaoJshW5YaQM0re79oEZ80FnkHo1co_cAeB8nPu1QNNj9VGMqg4E,FALSE,,"Mozilla/5.0 (Windows NT 10.0; Win64; x64) AppleWebKit/537.36 (KHTML, like Gecko) Chrome/92.0.4515.159 Safari/537.36",1366,657,1366,768,,,,,,,,8,1.995,0.506510417,-0.399739583,1,0,0,next_trial_button,0,4,4,70,1,landscape,visiblesun,noclouds,8,"666.6666666666666,500",
,,,,,,,gr,gr,gr,m,22,,2021-08-31_17h16.59.845,online_experiment,2021.1.4,Win32,59.86948452,IwAR0Uk6nXaoJshW5YaQM0re79oEZ80FnkHo1co_cAeB8nPu1QNNj9VGMqg4E,FALSE,,"Mozilla/5.0 (Windows NT 10.0; Win64; x64) AppleWebKit/537.36 (KHTML, like Gecko) Chrome/92.0.4515.159 Safari/537.36",1366,657,1366,768,,,,,,,,8,1.6535,0.399739583,-0.407552083,1,0,0,next_trial_button,0,5,5,2,1,beach,visiblesun,noclouds,0,"375,500",
,,,,,,,gr,gr,gr,m,22,,2021-08-31_17h16.59.845,online_experiment,2021.1.4,Win32,59.86948452,IwAR0Uk6nXaoJshW5YaQM0re79oEZ80FnkHo1co_cAeB8nPu1QNNj9VGMqg4E,FALSE,,"Mozilla/5.0 (Windows NT 10.0; Win64; x64) AppleWebKit/537.36 (KHTML, like Gecko) Chrome/92.0.4515.159 Safari/537.36",1366,657,1366,768,,,,,,,,7,2.8023,0.430989583,-0.41796875,1,0,0,next_trial_button,0,6,6,35,1,beach,visiblesun,yesclouds,4,"750,500",
,,,,,,,gr,gr,gr,m,22,,2021-08-31_17h16.59.845,online_experiment,2021.1.4,Win32,59.86948452,IwAR0Uk6nXaoJshW5YaQM0re79oEZ80FnkHo1co_cAeB8nPu1QNNj9VGMqg4E,FALSE,,"Mozilla/5.0 (Windows NT 10.0; Win64; x64) AppleWebKit/537.36 (KHTML, like Gecko) Chrome/92.0.4515.159 Safari/537.36",1366,657,1366,768,,,,,,,,7,1.6633,0.375,-0.407552083,1,0,0,next_trial_button,0,7,7,51,1,beach,visiblesun,yesclouds,6,"657.1279916753382,500",
,,,,,,,gr,gr,gr,m,22,,2021-08-31_17h16.59.845,online_experiment,2021.1.4,Win32,59.86948452,IwAR0Uk6nXaoJshW5YaQM0re79oEZ80FnkHo1co_cAeB8nPu1QNNj9VGMqg4E,FALSE,,"Mozilla/5.0 (Windows NT 10.0; Win64; x64) AppleWebKit/537.36 (KHTML, like Gecko) Chrome/92.0.4515.159 Safari/537.36",1366,657,1366,768,,,,,,,,8,1.8354,0.3828125,-0.3984375,1,0,0,next_trial_button,0,8,8,7,1,landscape,visiblesun,yesclouds,0,"743.421052631579,500",
,,,,,,,gr,gr,gr,m,22,,2021-08-31_17h16.59.845,online_experiment,2021.1.4,Win32,59.86948452,IwAR0Uk6nXaoJshW5YaQM0re79oEZ80FnkHo1co_cAeB8nPu1QNNj9VGMqg4E,FALSE,,"Mozilla/5.0 (Windows NT 10.0; Win64; x64) AppleWebKit/537.36 (KHTML, like Gecko) Chrome/92.0.4515.159 Safari/537.36",1366,657,1366,768,,,,,,,,8,1.7296,0.455729167,-0.419270833,1,0,0,next_trial_button,0,9,9,34,1,beach,visiblesun,noclouds,4,"749.6251874062968,500",
,,,,,,,gr,gr,gr,m,22,,2021-08-31_17h16.59.845,online_experiment,2021.1.4,Win32,59.86948452,IwAR0Uk6nXaoJshW5YaQM0re79oEZ80FnkHo1co_cAeB8nPu1QNNj9VGMqg4E,FALSE,,"Mozilla/5.0 (Windows NT 10.0; Win64; x64) AppleWebKit/537.36 (KHTML, like Gecko) Chrome/92.0.4515.159 Safari/537.36",1366,657,1366,768,,,,,,,,6,2.7702,0.526041667,-0.442708333,1,0,0,next_trial_button,0,10,10,77,1,landscape,invisiblesun,yesclouds,9,"888.8888888888888,500",
,,,,,,,gr,gr,gr,m,22,,2021-08-31_17h16.59.845,online_experiment,2021.1.4,Win32,59.86948452,IwAR0Uk6nXaoJshW5YaQM0re79oEZ80FnkHo1co_cAeB8nPu1QNNj9VGMqg4E,FALSE,,"Mozilla/5.0 (Windows NT 10.0; Win64; x64) AppleWebKit/537.36 (KHTML, like Gecko) Chrome/92.0.4515.159 Safari/537.36",1366,657,1366,768,,,,,,,,7,3.8375,0.53515625,-0.444010417,1,0,0,next_trial_button,0,11,11,16,1,beach,invisiblesun,noclouds,2,"752.8089887640449,500",
,,,,,,,gr,gr,gr,m,22,,2021-08-31_17h16.59.845,online_experiment,2021.1.4,Win32,59.86948452,IwAR0Uk6nXaoJshW5YaQM0re79oEZ80FnkHo1co_cAeB8nPu1QNNj9VGMqg4E,FALSE,,"Mozilla/5.0 (Windows NT 10.0; Win64; x64) AppleWebKit/537.36 (KHTML, like Gecko) Chrome/92.0.4515.159 Safari/537.36",1366,657,1366,768,,,,,,,,6,3.9094,0.46875,-0.408854167,1,0,0,next_trial_button,0,12,12,5,1,landscape,invisiblesun,yesclouds,0,"750.4690431519699,500",
,,,,,,,gr,gr,gr,m,22,,2021-08-31_17h16.59.845,online_experiment,2021.1.4,Win32,59.86948452,IwAR0Uk6nXaoJshW5YaQM0re79oEZ80FnkHo1co_cAeB8nPu1QNNj9VGMqg4E,FALSE,,"Mozilla/5.0 (Windows NT 10.0; Win64; x64) AppleWebKit/537.36 (KHTML, like Gecko) Chrome/92.0.4515.159 Safari/537.36",1366,657,1366,768,,,,,,,,6,2.3501,0.3984375,-0.403645833,1,0,0,next_trial_button,0,13,13,39,1,landscape,visiblesun,yesclouds,4,"749.7656982193065,500",
,,,,,,,gr,gr,gr,m,22,,2021-08-31_17h16.59.845,online_experiment,2021.1.4,Win32,59.86948452,IwAR0Uk6nXaoJshW5YaQM0re79oEZ80FnkHo1co_cAeB8nPu1QNNj9VGMqg4E,FALSE,,"Mozilla/5.0 (Windows NT 10.0; Win64; x64) AppleWebKit/537.36 (KHTML, like Gecko) Chrome/92.0.4515.159 Safari/537.36",1366,657,1366,768,,,,,,,,6,2.2672,0.41796875,-0.395833333,1,0,0,next_trial_button,0,14,14,52,1,landscape,invisiblesun,noclouds,6,"666.6666666666666,500",
,,,,,,,gr,gr,gr,m,22,,2021-08-31_17h16.59.845,online_experiment,2021.1.4,Win32,59.86948452,IwAR0Uk6nXaoJshW5YaQM0re79oEZ80FnkHo1co_cAeB8nPu1QNNj9VGMqg4E,FALSE,,"Mozilla/5.0 (Windows NT 10.0; Win64; x64) AppleWebKit/537.36 (KHTML, like Gecko) Chrome/92.0.4515.159 Safari/537.36",1366,657,1366,768,,,,,,,,5,2.2724,0.34765625,-0.4140625,1,0,0,next_trial_button,0,15,15,28,1,landscape,invisiblesun,noclouds,3,"888.8888888888888,500",
,,,,,,,gr,gr,gr,m,22,,2021-08-31_17h16.59.845,online_experiment,2021.1.4,Win32,59.86948452,IwAR0Uk6nXaoJshW5YaQM0re79oEZ80FnkHo1co_cAeB8nPu1QNNj9VGMqg4E,FALSE,,"Mozilla/5.0 (Windows NT 10.0; Win64; x64) AppleWebKit/537.36 (KHTML, like Gecko) Chrome/92.0.4515.159 Safari/537.36",1366,657,1366,768,,,,,,,,7,2.1525,0.47265625,-0.40625,1,0,0,next_trial_button,0,16,16,30,1,landscape,visiblesun,noclouds,3,"346.3035019455253,500",
,,,,,,,gr,gr,gr,m,22,,2021-08-31_17h16.59.845,online_experiment,2021.1.4,Win32,59.86948452,IwAR0Uk6nXaoJshW5YaQM0re79oEZ80FnkHo1co_cAeB8nPu1QNNj9VGMqg4E,FALSE,,"Mozilla/5.0 (Windows NT 10.0; Win64; x64) AppleWebKit/537.36 (KHTML, like Gecko) Chrome/92.0.4515.159 Safari/537.36",1366,657,1366,768,,,,,,,,10,1.8387,0.49609375,-0.4296875,1,0,0,next_trial_button,0,17,17,45,1,landscape,invisiblesun,yesclouds,5,"749.6251874062968,500",
,,,,,,,gr,gr,gr,m,22,,2021-08-31_17h16.59.845,online_experiment,2021.1.4,Win32,59.86948452,IwAR0Uk6nXaoJshW5YaQM0re79oEZ80FnkHo1co_cAeB8nPu1QNNj9VGMqg4E,FALSE,,"Mozilla/5.0 (Windows NT 10.0; Win64; x64) AppleWebKit/537.36 (KHTML, like Gecko) Chrome/92.0.4515.159 Safari/537.36",1366,657,1366,768,,,,,,,,8,2.2609,0.473958333,-0.408854167,1,0,0,next_trial_button,0,18,18,66,1,beach,visiblesun,noclouds,8,"1028.5714285714284,500",
,,,,,,,gr,gr,gr,m,22,,2021-08-31_17h16.59.845,online_experiment,2021.1.4,Win32,59.86948452,IwAR0Uk6nXaoJshW5YaQM0re79oEZ80FnkHo1co_cAeB8nPu1QNNj9VGMqg4E,FALSE,,"Mozilla/5.0 (Windows NT 10.0; Win64; x64) AppleWebKit/537.36 (KHTML, like Gecko) Chrome/92.0.4515.159 Safari/537.36",1366,657,1366,768,,,,,,,,6,1.8127,0.510416667,-0.4375,1,0,0,next_trial_button,0,19,19,68,1,landscape,invisiblesun,noclouds,8,"666.6666666666666,500",
,,,,,,,gr,gr,gr,m,22,,2021-08-31_17h16.59.845,online_experiment,2021.1.4,Win32,59.86948452,IwAR0Uk6nXaoJshW5YaQM0re79oEZ80FnkHo1co_cAeB8nPu1QNNj9VGMqg4E,FALSE,,"Mozilla/5.0 (Windows NT 10.0; Win64; x64) AppleWebKit/537.36 (KHTML, like Gecko) Chrome/92.0.4515.159 Safari/537.36",1366,657,1366,768,,,,,,,,8,1.6355,0.447916667,-0.428385417,1,0,0,next_trial_button,0,20,20,61,1,landscape,invisiblesun,yesclouds,7,"500,500",
,,,,,,,gr,gr,gr,m,22,,2021-08-31_17h16.59.845,online_experiment,2021.1.4,Win32,59.86948452,IwAR0Uk6nXaoJshW5YaQM0re79oEZ80FnkHo1co_cAeB8nPu1QNNj9VGMqg4E,FALSE,,"Mozilla/5.0 (Windows NT 10.0; Win64; x64) AppleWebKit/537.36 (KHTML, like Gecko) Chrome/92.0.4515.159 Safari/537.36",1366,657,1366,768,,,,,,,,7,3.9705,0.423177083,-0.41015625,1,0,0,next_trial_button,0,21,21,40,1,beach,invisiblesun,noclouds,5,"1028.5714285714284,500",
,,,,,,,gr,gr,gr,m,22,,2021-08-31_17h16.59.845,online_experiment,2021.1.4,Win32,59.86948452,IwAR0Uk6nXaoJshW5YaQM0re79oEZ80FnkHo1co_cAeB8nPu1QNNj9VGMqg4E,FALSE,,"Mozilla/5.0 (Windows NT 10.0; Win64; x64) AppleWebKit/537.36 (KHTML, like Gecko) Chrome/92.0.4515.159 Safari/537.36",1366,657,1366,768,,,,,,,,5,3.2868,0.477864583,-0.450520833,1,0,0,next_trial_button,0,22,22,72,1,beach,invisiblesun,noclouds,9,"888.8888888888888,500",
,,,,,,,gr,gr,gr,m,22,,2021-08-31_17h16.59.845,online_experiment,2021.1.4,Win32,59.86948452,IwAR0Uk6nXaoJshW5YaQM0re79oEZ80FnkHo1co_cAeB8nPu1QNNj9VGMqg4E,FALSE,,"Mozilla/5.0 (Windows NT 10.0; Win64; x64) AppleWebKit/537.36 (KHTML, like Gecko) Chrome/92.0.4515.159 Safari/537.36",1366,657,1366,768,,,,,,,,9,2.2756,0.3984375,-0.408854167,1,0,0,next_trial_button,0,23,23,22,1,landscape,visiblesun,noclouds,2,"749.3333333333333,500",
,,,,,,,gr,gr,gr,m,22,,2021-08-31_17h16.59.845,online_experiment,2021.1.4,Win32,59.86948452,IwAR0Uk6nXaoJshW5YaQM0re79oEZ80FnkHo1co_cAeB8nPu1QNNj9VGMqg4E,FALSE,,"Mozilla/5.0 (Windows NT 10.0; Win64; x64) AppleWebKit/537.36 (KHTML, like Gecko) Chrome/92.0.4515.159 Safari/537.36",1366,657,1366,768,,,,,,,,7,2.4696,0.45703125,-0.43359375,1,0,0,next_trial_button,0,24,24,10,1,beach,visiblesun,noclouds,1,"747.0261697065821,500",
,,,,,,,gr,gr,gr,m,22,,2021-08-31_17h16.59.845,online_experiment,2021.1.4,Win32,59.86948452,IwAR0Uk6nXaoJshW5YaQM0re79oEZ80FnkHo1co_cAeB8nPu1QNNj9VGMqg4E,FALSE,,"Mozilla/5.0 (Windows NT 10.0; Win64; x64) AppleWebKit/537.36 (KHTML, like Gecko) Chrome/92.0.4515.159 Safari/537.36",1366,657,1366,768,,,,,,,,7,3.7566,0.524739583,-0.416666667,1,0,0,next_trial_button,0,25,25,3,1,beach,visiblesun,yesclouds,0,"1152.5122276567363,500",
,,,,,,,gr,gr,gr,m,22,,2021-08-31_17h16.59.845,online_experiment,2021.1.4,Win32,59.86948452,IwAR0Uk6nXaoJshW5YaQM0re79oEZ80FnkHo1co_cAeB8nPu1QNNj9VGMqg4E,FALSE,,"Mozilla/5.0 (Windows NT 10.0; Win64; x64) AppleWebKit/537.36 (KHTML, like Gecko) Chrome/92.0.4515.159 Safari/537.36",1366,657,1366,768,,,,,,,,8,3.6191,0.444010417,-0.408854167,1,0,0,next_trial_button,0,26,26,33,1,beach,invisiblesun,yesclouds,4,"751.5473032714411,500",
,,,,,,,gr,gr,gr,m,22,,2021-08-31_17h16.59.845,online_experiment,2021.1.4,Win32,59.86948452,IwAR0Uk6nXaoJshW5YaQM0re79oEZ80FnkHo1co_cAeB8nPu1QNNj9VGMqg4E,FALSE,,"Mozilla/5.0 (Windows NT 10.0; Win64; x64) AppleWebKit/537.36 (KHTML, like Gecko) Chrome/92.0.4515.159 Safari/537.36",1366,657,1366,768,,,,,,,,8,2.0427,0.364583333,-0.41015625,1,0,0,next_trial_button,0,27,27,26,1,beach,visiblesun,noclouds,3,"888.8888888888888,500",
,,,,,,,gr,gr,gr,m,22,,2021-08-31_17h16.59.845,online_experiment,2021.1.4,Win32,59.86948452,IwAR0Uk6nXaoJshW5YaQM0re79oEZ80FnkHo1co_cAeB8nPu1QNNj9VGMqg4E,FALSE,,"Mozilla/5.0 (Windows NT 10.0; Win64; x64) AppleWebKit/537.36 (KHTML, like Gecko) Chrome/92.0.4515.159 Safari/537.36",1366,657,1366,768,,,,,,,,9,1.627,0.481770833,-0.407552083,1,0,0,next_trial_button,0,28,28,37,1,landscape,invisiblesun,yesclouds,4,"669.4214876033058,500",
,,,,,,,gr,gr,gr,m,22,,2021-08-31_17h16.59.845,online_experiment,2021.1.4,Win32,59.86948452,IwAR0Uk6nXaoJshW5YaQM0re79oEZ80FnkHo1co_cAeB8nPu1QNNj9VGMqg4E,FALSE,,"Mozilla/5.0 (Windows NT 10.0; Win64; x64) AppleWebKit/537.36 (KHTML, like Gecko) Chrome/92.0.4515.159 Safari/537.36",1366,657,1366,768,,,,,,,,8,1.4819,0.486979167,-0.415364583,1,0,0,next_trial_button,0,29,29,12,1,landscape,invisiblesun,noclouds,1,"666.6666666666666,500",
,,,,,,,gr,gr,gr,m,22,,2021-08-31_17h16.59.845,online_experiment,2021.1.4,Win32,59.86948452,IwAR0Uk6nXaoJshW5YaQM0re79oEZ80FnkHo1co_cAeB8nPu1QNNj9VGMqg4E,FALSE,,"Mozilla/5.0 (Windows NT 10.0; Win64; x64) AppleWebKit/537.36 (KHTML, like Gecko) Chrome/92.0.4515.159 Safari/537.36",1366,657,1366,768,,,,,,,,8,2.6702,0.37890625,-0.424479167,1,0,0,next_trial_button,0,30,30,65,1,beach,invisiblesun,yesclouds,8,"750,500",
,,,,,,,gr,gr,gr,m,22,,2021-08-31_17h16.59.845,online_experiment,2021.1.4,Win32,59.86948452,IwAR0Uk6nXaoJshW5YaQM0re79oEZ80FnkHo1co_cAeB8nPu1QNNj9VGMqg4E,FALSE,,"Mozilla/5.0 (Windows NT 10.0; Win64; x64) AppleWebKit/537.36 (KHTML, like Gecko) Chrome/92.0.4515.159 Safari/537.36",1366,657,1366,768,,,,,,,,8,2.1405,0.420572917,-0.4140625,1,0,0,next_trial_button,0,31,31,11,1,beach,visiblesun,yesclouds,1,"989.8132427843803,500",
,,,,,,,gr,gr,gr,m,22,,2021-08-31_17h16.59.845,online_experiment,2021.1.4,Win32,59.86948452,IwAR0Uk6nXaoJshW5YaQM0re79oEZ80FnkHo1co_cAeB8nPu1QNNj9VGMqg4E,FALSE,,"Mozilla/5.0 (Windows NT 10.0; Win64; x64) AppleWebKit/537.36 (KHTML, like Gecko) Chrome/92.0.4515.159 Safari/537.36",1366,657,1366,768,,,,,,,,7,2.784,0.333333333,-0.415364583,1,0,0,next_trial_button,0,32,32,50,1,beach,visiblesun,noclouds,6,"666.6666666666666,500",
,,,,,,,gr,gr,gr,m,22,,2021-08-31_17h16.59.845,online_experiment,2021.1.4,Win32,59.86948452,IwAR0Uk6nXaoJshW5YaQM0re79oEZ80FnkHo1co_cAeB8nPu1QNNj9VGMqg4E,FALSE,,"Mozilla/5.0 (Windows NT 10.0; Win64; x64) AppleWebKit/537.36 (KHTML, like Gecko) Chrome/92.0.4515.159 Safari/537.36",1366,657,1366,768,,,,,,,,7,6.4626,0.455729167,-0.423177083,1,0,0,next_trial_button,0,33,33,59,1,beach,visiblesun,yesclouds,7,"888.9689978370584,500",
,,,,,,,gr,gr,gr,m,22,,2021-08-31_17h16.59.845,online_experiment,2021.1.4,Win32,59.86948452,IwAR0Uk6nXaoJshW5YaQM0re79oEZ80FnkHo1co_cAeB8nPu1QNNj9VGMqg4E,FALSE,,"Mozilla/5.0 (Windows NT 10.0; Win64; x64) AppleWebKit/537.36 (KHTML, like Gecko) Chrome/92.0.4515.159 Safari/537.36",1366,657,1366,768,,,,,,,,9,3.173,0.356770833,-0.393229167,1,0,0,next_trial_button,0,34,34,54,1,landscape,visiblesun,noclouds,6,"695.0043821209465,500",
,,,,,,,gr,gr,gr,m,22,,2021-08-31_17h16.59.845,online_experiment,2021.1.4,Win32,59.86948452,IwAR0Uk6nXaoJshW5YaQM0re79oEZ80FnkHo1co_cAeB8nPu1QNNj9VGMqg4E,FALSE,,"Mozilla/5.0 (Windows NT 10.0; Win64; x64) AppleWebKit/537.36 (KHTML, like Gecko) Chrome/92.0.4515.159 Safari/537.36",1366,657,1366,768,,,,,,,,9,1.8136,0.432291667,-0.377604167,1,0,0,next_trial_button,0,35,35,17,1,beach,invisiblesun,yesclouds,2,"684.8635235732011,500",
,,,,,,,gr,gr,gr,m,22,,2021-08-31_17h16.59.845,online_experiment,2021.1.4,Win32,59.86948452,IwAR0Uk6nXaoJshW5YaQM0re79oEZ80FnkHo1co_cAeB8nPu1QNNj9VGMqg4E,FALSE,,"Mozilla/5.0 (Windows NT 10.0; Win64; x64) AppleWebKit/537.36 (KHTML, like Gecko) Chrome/92.0.4515.159 Safari/537.36",1366,657,1366,768,,,,,,,,8,2.9136,0.51171875,-0.421875,1,0,0,next_trial_button,0,36,36,6,1,landscape,visiblesun,noclouds,0,"1413.8005159071367,500",
,,,,,,,gr,gr,gr,m,22,,2021-08-31_17h16.59.845,online_experiment,2021.1.4,Win32,59.86948452,IwAR0Uk6nXaoJshW5YaQM0re79oEZ80FnkHo1co_cAeB8nPu1QNNj9VGMqg4E,FALSE,,"Mozilla/5.0 (Windows NT 10.0; Win64; x64) AppleWebKit/537.36 (KHTML, like Gecko) Chrome/92.0.4515.159 Safari/537.36",1366,657,1366,768,,,,,,,,8,1.9146,0.42578125,-0.395833333,1,0,0,next_trial_button,0,37,37,38,1,landscape,visiblesun,noclouds,4,"733.3333333333333,500",
,,,,,,,gr,gr,gr,m,22,,2021-08-31_17h16.59.845,online_experiment,2021.1.4,Win32,59.86948452,IwAR0Uk6nXaoJshW5YaQM0re79oEZ80FnkHo1co_cAeB8nPu1QNNj9VGMqg4E,FALSE,,"Mozilla/5.0 (Windows NT 10.0; Win64; x64) AppleWebKit/537.36 (KHTML, like Gecko) Chrome/92.0.4515.159 Safari/537.36",1366,657,1366,768,,,,,,,,6,3.0582,0.462239583,-0.442708333,1,0,0,next_trial_button,0,38,38,18,1,beach,visiblesun,noclouds,2,"666.6666666666666,500",
,,,,,,,gr,gr,gr,m,22,,2021-08-31_17h16.59.845,online_experiment,2021.1.4,Win32,59.86948452,IwAR0Uk6nXaoJshW5YaQM0re79oEZ80FnkHo1co_cAeB8nPu1QNNj9VGMqg4E,FALSE,,"Mozilla/5.0 (Windows NT 10.0; Win64; x64) AppleWebKit/537.36 (KHTML, like Gecko) Chrome/92.0.4515.159 Safari/537.36",1366,657,1366,768,,,,,,,,6,2.718,0.388020833,-0.421875,1,0,0,next_trial_button,0,39,39,48,1,beach,invisiblesun,noclouds,6,"1028.5714285714284,500",
,,,,,,,gr,gr,gr,m,22,,2021-08-31_17h16.59.845,online_experiment,2021.1.4,Win32,59.86948452,IwAR0Uk6nXaoJshW5YaQM0re79oEZ80FnkHo1co_cAeB8nPu1QNNj9VGMqg4E,FALSE,,"Mozilla/5.0 (Windows NT 10.0; Win64; x64) AppleWebKit/537.36 (KHTML, like Gecko) Chrome/92.0.4515.159 Safari/537.36",1366,657,1366,768,,,,,,,,9,2.9519,0.438802083,-0.40625,1,0,0,next_trial_button,0,40,40,29,1,landscape,invisiblesun,yesclouds,3,"749.8660953401178,500",
,,,,,,,gr,gr,gr,m,22,,2021-08-31_17h16.59.845,online_experiment,2021.1.4,Win32,59.86948452,IwAR0Uk6nXaoJshW5YaQM0re79oEZ80FnkHo1co_cAeB8nPu1QNNj9VGMqg4E,FALSE,,"Mozilla/5.0 (Windows NT 10.0; Win64; x64) AppleWebKit/537.36 (KHTML, like Gecko) Chrome/92.0.4515.159 Safari/537.36",1366,657,1366,768,,,,,,,,6,4.1206,0.361979167,-0.447916667,1,0,0,next_trial_button,0,41,41,57,1,beach,invisiblesun,yesclouds,7,"749.707488299532,500",
,,,,,,,gr,gr,gr,m,22,,2021-08-31_17h16.59.845,online_experiment,2021.1.4,Win32,59.86948452,IwAR0Uk6nXaoJshW5YaQM0re79oEZ80FnkHo1co_cAeB8nPu1QNNj9VGMqg4E,FALSE,,"Mozilla/5.0 (Windows NT 10.0; Win64; x64) AppleWebKit/537.36 (KHTML, like Gecko) Chrome/92.0.4515.159 Safari/537.36",1366,657,1366,768,,,,,,,,8,1.8956,0.46875,-0.4375,1,0,0,next_trial_button,0,42,42,53,1,landscape,invisiblesun,yesclouds,6,"750.0695023630803,500",
,,,,,,,gr,gr,gr,m,22,,2021-08-31_17h16.59.845,online_experiment,2021.1.4,Win32,59.86948452,IwAR0Uk6nXaoJshW5YaQM0re79oEZ80FnkHo1co_cAeB8nPu1QNNj9VGMqg4E,FALSE,,"Mozilla/5.0 (Windows NT 10.0; Win64; x64) AppleWebKit/537.36 (KHTML, like Gecko) Chrome/92.0.4515.159 Safari/537.36",1366,657,1366,768,,,,,,,,7,2.2523,0.364583333,-0.412760417,1,0,0,next_trial_button,0,43,43,43,1,beach,visiblesun,yesclouds,5,"750,500",
,,,,,,,gr,gr,gr,m,22,,2021-08-31_17h16.59.845,online_experiment,2021.1.4,Win32,59.86948452,IwAR0Uk6nXaoJshW5YaQM0re79oEZ80FnkHo1co_cAeB8nPu1QNNj9VGMqg4E,FALSE,,"Mozilla/5.0 (Windows NT 10.0; Win64; x64) AppleWebKit/537.36 (KHTML, like Gecko) Chrome/92.0.4515.159 Safari/537.36",1366,657,1366,768,,,,,,,,8,1.7413,0.427083333,-0.4296875,1,0,0,next_trial_button,0,44,44,21,1,landscape,invisiblesun,yesclouds,2,"750,500",
,,,,,,,gr,gr,gr,m,22,,2021-08-31_17h16.59.845,online_experiment,2021.1.4,Win32,59.86948452,IwAR0Uk6nXaoJshW5YaQM0re79oEZ80FnkHo1co_cAeB8nPu1QNNj9VGMqg4E,FALSE,,"Mozilla/5.0 (Windows NT 10.0; Win64; x64) AppleWebKit/537.36 (KHTML, like Gecko) Chrome/92.0.4515.159 Safari/537.36",1366,657,1366,768,,,,,,,,7,2.8506,0.489583333,-0.43359375,1,0,0,next_trial_button,0,45,45,75,1,beach,visiblesun,yesclouds,9,"1029.6010296010297,500",
,,,,,,,gr,gr,gr,m,22,,2021-08-31_17h16.59.845,online_experiment,2021.1.4,Win32,59.86948452,IwAR0Uk6nXaoJshW5YaQM0re79oEZ80FnkHo1co_cAeB8nPu1QNNj9VGMqg4E,FALSE,,"Mozilla/5.0 (Windows NT 10.0; Win64; x64) AppleWebKit/537.36 (KHTML, like Gecko) Chrome/92.0.4515.159 Safari/537.36",1366,657,1366,768,,,,,,,,5,1.8738,0.4140625,-0.4375,1,0,0,next_trial_button,0,46,46,13,1,landscape,invisiblesun,yesclouds,1,"783.1192660550458,500",
,,,,,,,gr,gr,gr,m,22,,2021-08-31_17h16.59.845,online_experiment,2021.1.4,Win32,59.86948452,IwAR0Uk6nXaoJshW5YaQM0re79oEZ80FnkHo1co_cAeB8nPu1QNNj9VGMqg4E,FALSE,,"Mozilla/5.0 (Windows NT 10.0; Win64; x64) AppleWebKit/537.36 (KHTML, like Gecko) Chrome/92.0.4515.159 Safari/537.36",1366,657,1366,768,,,,,,,,7,1.727,0.509114583,-0.42578125,1,0,0,next_trial_button,0,47,47,1,1,beach,invisiblesun,yesclouds,0,"666.6666666666666,500",
,,,,,,,gr,gr,gr,m,22,,2021-08-31_17h16.59.845,online_experiment,2021.1.4,Win32,59.86948452,IwAR0Uk6nXaoJshW5YaQM0re79oEZ80FnkHo1co_cAeB8nPu1QNNj9VGMqg4E,FALSE,,"Mozilla/5.0 (Windows NT 10.0; Win64; x64) AppleWebKit/537.36 (KHTML, like Gecko) Chrome/92.0.4515.159 Safari/537.36",1366,657,1366,768,,,,,,,,8,1.9352,0.393229167,-0.4140625,1,0,0,next_trial_button,0,48,48,14,1,landscape,visiblesun,noclouds,1,"745.9919839679359,500",
,,,,,,,gr,gr,gr,m,22,,2021-08-31_17h16.59.845,online_experiment,2021.1.4,Win32,59.86948452,IwAR0Uk6nXaoJshW5YaQM0re79oEZ80FnkHo1co_cAeB8nPu1QNNj9VGMqg4E,FALSE,,"Mozilla/5.0 (Windows NT 10.0; Win64; x64) AppleWebKit/537.36 (KHTML, like Gecko) Chrome/92.0.4515.159 Safari/537.36",1366,657,1366,768,,,,,,,,6,3.0534,0.430989583,-0.415364583,1,0,0,next_trial_button,0,49,49,31,1,landscape,visiblesun,yesclouds,3,"638.0622837370242,500",
,,,,,,,gr,gr,gr,m,22,,2021-08-31_17h16.59.845,online_experiment,2021.1.4,Win32,59.86948452,IwAR0Uk6nXaoJshW5YaQM0re79oEZ80FnkHo1co_cAeB8nPu1QNNj9VGMqg4E,FALSE,,"Mozilla/5.0 (Windows NT 10.0; Win64; x64) AppleWebKit/537.36 (KHTML, like Gecko) Chrome/92.0.4515.159 Safari/537.36",1366,657,1366,768,,,,,,,,6,3.5817,0.403645833,-0.421875,1,0,0,next_trial_button,0,50,50,79,1,landscape,visiblesun,yesclouds,9,"1028.5714285714284,500",
,,,,,,,gr,gr,gr,m,22,,2021-08-31_17h16.59.845,online_experiment,2021.1.4,Win32,59.86948452,IwAR0Uk6nXaoJshW5YaQM0re79oEZ80FnkHo1co_cAeB8nPu1QNNj9VGMqg4E,FALSE,,"Mozilla/5.0 (Windows NT 10.0; Win64; x64) AppleWebKit/537.36 (KHTML, like Gecko) Chrome/92.0.4515.159 Safari/537.36",1366,657,1366,768,,,,,,,,6,1.8573,0.399739583,-0.411458333,1,0,0,next_trial_button,0,51,51,19,1,beach,visiblesun,yesclouds,2,"770.1393095093882,500",
,,,,,,,gr,gr,gr,m,22,,2021-08-31_17h16.59.845,online_experiment,2021.1.4,Win32,59.86948452,IwAR0Uk6nXaoJshW5YaQM0re79oEZ80FnkHo1co_cAeB8nPu1QNNj9VGMqg4E,FALSE,,"Mozilla/5.0 (Windows NT 10.0; Win64; x64) AppleWebKit/537.36 (KHTML, like Gecko) Chrome/92.0.4515.159 Safari/537.36",1366,657,1366,768,,,,,,,,7,1.7729,0.44140625,-0.447916667,1,0,0,next_trial_button,0,52,52,55,1,landscape,visiblesun,yesclouds,6,"749.8819083608881,500",
,,,,,,,gr,gr,gr,m,22,,2021-08-31_17h16.59.845,online_experiment,2021.1.4,Win32,59.86948452,IwAR0Uk6nXaoJshW5YaQM0re79oEZ80FnkHo1co_cAeB8nPu1QNNj9VGMqg4E,FALSE,,"Mozilla/5.0 (Windows NT 10.0; Win64; x64) AppleWebKit/537.36 (KHTML, like Gecko) Chrome/92.0.4515.159 Safari/537.36",1366,657,1366,768,,,,,,,,8,1.8704,0.388020833,-0.393229167,1,0,0,next_trial_button,0,53,53,76,1,landscape,invisiblesun,noclouds,9,"1056.6037735849056,500",
,,,,,,,gr,gr,gr,m,22,,2021-08-31_17h16.59.845,online_experiment,2021.1.4,Win32,59.86948452,IwAR0Uk6nXaoJshW5YaQM0re79oEZ80FnkHo1co_cAeB8nPu1QNNj9VGMqg4E,FALSE,,"Mozilla/5.0 (Windows NT 10.0; Win64; x64) AppleWebKit/537.36 (KHTML, like Gecko) Chrome/92.0.4515.159 Safari/537.36",1366,657,1366,768,,,,,,,,5,3.3212,0.403645833,-0.455729167,1,0,0,next_trial_button,0,54,54,71,1,landscape,visiblesun,yesclouds,8,"666.6666666666666,500",
,,,,,,,gr,gr,gr,m,22,,2021-08-31_17h16.59.845,online_experiment,2021.1.4,Win32,59.86948452,IwAR0Uk6nXaoJshW5YaQM0re79oEZ80FnkHo1co_cAeB8nPu1QNNj9VGMqg4E,FALSE,,"Mozilla/5.0 (Windows NT 10.0; Win64; x64) AppleWebKit/537.36 (KHTML, like Gecko) Chrome/92.0.4515.159 Safari/537.36",1366,657,1366,768,,,,,,,,8,2.1128,0.4453125,-0.40234375,1,0,0,next_trial_button,0,55,55,27,1,beach,visiblesun,yesclouds,3,"752.8089887640449,500",
,,,,,,,gr,gr,gr,m,22,,2021-08-31_17h16.59.845,online_experiment,2021.1.4,Win32,59.86948452,IwAR0Uk6nXaoJshW5YaQM0re79oEZ80FnkHo1co_cAeB8nPu1QNNj9VGMqg4E,FALSE,,"Mozilla/5.0 (Windows NT 10.0; Win64; x64) AppleWebKit/537.36 (KHTML, like Gecko) Chrome/92.0.4515.159 Safari/537.36",1366,657,1366,768,,,,,,,,6,3.3361,0.455729167,-0.420572917,1,0,0,next_trial_button,0,56,56,44,1,landscape,invisiblesun,noclouds,5,"666.6666666666666,500",
,,,,,,,gr,gr,gr,m,22,,2021-08-31_17h16.59.845,online_experiment,2021.1.4,Win32,59.86948452,IwAR0Uk6nXaoJshW5YaQM0re79oEZ80FnkHo1co_cAeB8nPu1QNNj9VGMqg4E,FALSE,,"Mozilla/5.0 (Windows NT 10.0; Win64; x64) AppleWebKit/537.36 (KHTML, like Gecko) Chrome/92.0.4515.159 Safari/537.36",1366,657,1366,768,,,,,,,,8,1.9032,0.475260417,-0.458333333,1,0,0,next_trial_button,0,57,57,47,1,landscape,visiblesun,yesclouds,5,"666.6666666666666,500",
,,,,,,,gr,gr,gr,m,22,,2021-08-31_17h16.59.845,online_experiment,2021.1.4,Win32,59.86948452,IwAR0Uk6nXaoJshW5YaQM0re79oEZ80FnkHo1co_cAeB8nPu1QNNj9VGMqg4E,FALSE,,"Mozilla/5.0 (Windows NT 10.0; Win64; x64) AppleWebKit/537.36 (KHTML, like Gecko) Chrome/92.0.4515.159 Safari/537.36",1366,657,1366,768,,,,,,,,7,3.5366,0.334635417,-0.384114583,1,0,0,next_trial_button,0,58,58,0,1,beach,invisiblesun,noclouds,0,"750,500",
,,,,,,,gr,gr,gr,m,22,,2021-08-31_17h16.59.845,online_experiment,2021.1.4,Win32,59.86948452,IwAR0Uk6nXaoJshW5YaQM0re79oEZ80FnkHo1co_cAeB8nPu1QNNj9VGMqg4E,FALSE,,"Mozilla/5.0 (Windows NT 10.0; Win64; x64) AppleWebKit/537.36 (KHTML, like Gecko) Chrome/92.0.4515.159 Safari/537.36",1366,657,1366,768,,,,,,,,6,2.7925,0.442708333,-0.419270833,1,0,0,next_trial_button,0,59,59,69,1,landscape,invisiblesun,yesclouds,8,"750,500",
,,,,,,,gr,gr,gr,m,22,,2021-08-31_17h16.59.845,online_experiment,2021.1.4,Win32,59.86948452,IwAR0Uk6nXaoJshW5YaQM0re79oEZ80FnkHo1co_cAeB8nPu1QNNj9VGMqg4E,FALSE,,"Mozilla/5.0 (Windows NT 10.0; Win64; x64) AppleWebKit/537.36 (KHTML, like Gecko) Chrome/92.0.4515.159 Safari/537.36",1366,657,1366,768,,,,,,,,7,1.487,0.359375,-0.404947917,1,0,0,next_trial_button,0,60,60,56,1,beach,invisiblesun,noclouds,7,"1028.5714285714284,500",
,,,,,,,gr,gr,gr,m,22,,2021-08-31_17h16.59.845,online_experiment,2021.1.4,Win32,59.86948452,IwAR0Uk6nXaoJshW5YaQM0re79oEZ80FnkHo1co_cAeB8nPu1QNNj9VGMqg4E,FALSE,,"Mozilla/5.0 (Windows NT 10.0; Win64; x64) AppleWebKit/537.36 (KHTML, like Gecko) Chrome/92.0.4515.159 Safari/537.36",1366,657,1366,768,,,,,,,,6,1.5536,0.41796875,-0.381510417,1,0,0,next_trial_button,0,61,61,23,1,landscape,visiblesun,yesclouds,2,"767.97829036635,500",
,,,,,,,gr,gr,gr,m,22,,2021-08-31_17h16.59.845,online_experiment,2021.1.4,Win32,59.86948452,IwAR0Uk6nXaoJshW5YaQM0re79oEZ80FnkHo1co_cAeB8nPu1QNNj9VGMqg4E,FALSE,,"Mozilla/5.0 (Windows NT 10.0; Win64; x64) AppleWebKit/537.36 (KHTML, like Gecko) Chrome/92.0.4515.159 Safari/537.36",1366,657,1366,768,,,,,,,,7,2.1034,0.434895833,-0.444010417,1,0,0,next_trial_button,0,62,62,64,1,beach,invisiblesun,noclouds,8,"1028.5714285714284,500",
,,,,,,,gr,gr,gr,m,22,,2021-08-31_17h16.59.845,online_experiment,2021.1.4,Win32,59.86948452,IwAR0Uk6nXaoJshW5YaQM0re79oEZ80FnkHo1co_cAeB8nPu1QNNj9VGMqg4E,FALSE,,"Mozilla/5.0 (Windows NT 10.0; Win64; x64) AppleWebKit/537.36 (KHTML, like Gecko) Chrome/92.0.4515.159 Safari/537.36",1366,657,1366,768,,,,,,,,8,1.6529,0.388020833,-0.41796875,1,0,0,next_trial_button,0,63,63,63,1,landscape,visiblesun,yesclouds,7,"331.94444444444446,500",
,,,,,,,gr,gr,gr,m,22,,2021-08-31_17h16.59.845,online_experiment,2021.1.4,Win32,59.86948452,IwAR0Uk6nXaoJshW5YaQM0re79oEZ80FnkHo1co_cAeB8nPu1QNNj9VGMqg4E,FALSE,,"Mozilla/5.0 (Windows NT 10.0; Win64; x64) AppleWebKit/537.36 (KHTML, like Gecko) Chrome/92.0.4515.159 Safari/537.36",1366,657,1366,768,,,,,,,,9,2.1042,0.533854167,-0.42578125,1,0,0,next_trial_button,0,64,64,41,1,beach,invisiblesun,yesclouds,5,"1248.4394506866417,500",
,,,,,,,gr,gr,gr,m,22,,2021-08-31_17h16.59.845,online_experiment,2021.1.4,Win32,59.86948452,IwAR0Uk6nXaoJshW5YaQM0re79oEZ80FnkHo1co_cAeB8nPu1QNNj9VGMqg4E,FALSE,,"Mozilla/5.0 (Windows NT 10.0; Win64; x64) AppleWebKit/537.36 (KHTML, like Gecko) Chrome/92.0.4515.159 Safari/537.36",1366,657,1366,768,,,,,,,,6,2.7274,0.391927083,-0.397135417,1,0,0,next_trial_button,0,65,65,62,1,landscape,visiblesun,noclouds,7,"417.42389822807814,500",
,,,,,,,gr,gr,gr,m,22,,2021-08-31_17h16.59.845,online_experiment,2021.1.4,Win32,59.86948452,IwAR0Uk6nXaoJshW5YaQM0re79oEZ80FnkHo1co_cAeB8nPu1QNNj9VGMqg4E,FALSE,,"Mozilla/5.0 (Windows NT 10.0; Win64; x64) AppleWebKit/537.36 (KHTML, like Gecko) Chrome/92.0.4515.159 Safari/537.36",1366,657,1366,768,,,,,,,,7,1.6195,0.37890625,-0.407552083,1,0,0,next_trial_button,0,66,66,46,1,landscape,visiblesun,noclouds,5,"750,500",
,,,,,,,gr,gr,gr,m,22,,2021-08-31_17h16.59.845,online_experiment,2021.1.4,Win32,59.86948452,IwAR0Uk6nXaoJshW5YaQM0re79oEZ80FnkHo1co_cAeB8nPu1QNNj9VGMqg4E,FALSE,,"Mozilla/5.0 (Windows NT 10.0; Win64; x64) AppleWebKit/537.36 (KHTML, like Gecko) Chrome/92.0.4515.159 Safari/537.36",1366,657,1366,768,,,,,,,,7,1.7654,0.46875,-0.432291667,1,0,0,next_trial_button,0,67,67,24,1,beach,invisiblesun,noclouds,3,"750.089190153407,500",
,,,,,,,gr,gr,gr,m,22,,2021-08-31_17h16.59.845,online_experiment,2021.1.4,Win32,59.86948452,IwAR0Uk6nXaoJshW5YaQM0re79oEZ80FnkHo1co_cAeB8nPu1QNNj9VGMqg4E,FALSE,,"Mozilla/5.0 (Windows NT 10.0; Win64; x64) AppleWebKit/537.36 (KHTML, like Gecko) Chrome/92.0.4515.159 Safari/537.36",1366,657,1366,768,,,,,,,,6,1.9895,0.520833333,-0.41015625,1,0,0,next_trial_button,0,68,68,42,1,beach,visiblesun,noclouds,5,"834.4594594594595,500",
,,,,,,,gr,gr,gr,m,22,,2021-08-31_17h16.59.845,online_experiment,2021.1.4,Win32,59.86948452,IwAR0Uk6nXaoJshW5YaQM0re79oEZ80FnkHo1co_cAeB8nPu1QNNj9VGMqg4E,FALSE,,"Mozilla/5.0 (Windows NT 10.0; Win64; x64) AppleWebKit/537.36 (KHTML, like Gecko) Chrome/92.0.4515.159 Safari/537.36",1366,657,1366,768,,,,,,,,8,1.9896,0.427083333,-0.446614583,1,0,0,next_trial_button,0,69,69,8,1,beach,invisiblesun,noclouds,1,"1215.1898734177216,500",
,,,,,,,gr,gr,gr,m,22,,2021-08-31_17h16.59.845,online_experiment,2021.1.4,Win32,59.86948452,IwAR0Uk6nXaoJshW5YaQM0re79oEZ80FnkHo1co_cAeB8nPu1QNNj9VGMqg4E,FALSE,,"Mozilla/5.0 (Windows NT 10.0; Win64; x64) AppleWebKit/537.36 (KHTML, like Gecko) Chrome/92.0.4515.159 Safari/537.36",1366,657,1366,768,,,,,,,,7,1.8782,0.3125,-0.37890625,1,0,0,next_trial_button,0,70,70,49,1,beach,invisiblesun,yesclouds,6,"858.4474885844749,500",
,,,,,,,gr,gr,gr,m,22,,2021-08-31_17h16.59.845,online_experiment,2021.1.4,Win32,59.86948452,IwAR0Uk6nXaoJshW5YaQM0re79oEZ80FnkHo1co_cAeB8nPu1QNNj9VGMqg4E,FALSE,,"Mozilla/5.0 (Windows NT 10.0; Win64; x64) AppleWebKit/537.36 (KHTML, like Gecko) Chrome/92.0.4515.159 Safari/537.36",1366,657,1366,768,,,,,,,,7,2.4256,0.462239583,-0.440104167,1,0,0,next_trial_button,0,71,71,36,1,landscape,invisiblesun,noclouds,4,"281.25,500",
,,,,,,,gr,gr,gr,m,22,,2021-08-31_17h16.59.845,online_experiment,2021.1.4,Win32,59.86948452,IwAR0Uk6nXaoJshW5YaQM0re79oEZ80FnkHo1co_cAeB8nPu1QNNj9VGMqg4E,FALSE,,"Mozilla/5.0 (Windows NT 10.0; Win64; x64) AppleWebKit/537.36 (KHTML, like Gecko) Chrome/92.0.4515.159 Safari/537.36",1366,657,1366,768,,,,,,,,6,1.889,0.458333333,-0.421875,1,0,0,next_trial_button,0,72,72,25,1,beach,invisiblesun,yesclouds,3,"750.4690431519699,500",
,,,,,,,gr,gr,gr,m,22,,2021-08-31_17h16.59.845,online_experiment,2021.1.4,Win32,59.86948452,IwAR0Uk6nXaoJshW5YaQM0re79oEZ80FnkHo1co_cAeB8nPu1QNNj9VGMqg4E,FALSE,,"Mozilla/5.0 (Windows NT 10.0; Win64; x64) AppleWebKit/537.36 (KHTML, like Gecko) Chrome/92.0.4515.159 Safari/537.36",1366,657,1366,768,,,,,,,,6,4.7779,0.430989583,-0.408854167,1,0,0,next_trial_button,0,73,73,78,1,landscape,visiblesun,noclouds,9,"666.6666666666666,500",
,,,,,,,gr,gr,gr,m,22,,2021-08-31_17h16.59.845,online_experiment,2021.1.4,Win32,59.86948452,IwAR0Uk6nXaoJshW5YaQM0re79oEZ80FnkHo1co_cAeB8nPu1QNNj9VGMqg4E,FALSE,,"Mozilla/5.0 (Windows NT 10.0; Win64; x64) AppleWebKit/537.36 (KHTML, like Gecko) Chrome/92.0.4515.159 Safari/537.36",1366,657,1366,768,,,,,,,,7,1.5695,0.4921875,-0.404947917,1,0,0,next_trial_button,0,74,74,58,1,beach,visiblesun,noclouds,7,"1028.5714285714284,500",
,,,,,,,gr,gr,gr,m,22,,2021-08-31_17h16.59.845,online_experiment,2021.1.4,Win32,59.86948452,IwAR0Uk6nXaoJshW5YaQM0re79oEZ80FnkHo1co_cAeB8nPu1QNNj9VGMqg4E,FALSE,,"Mozilla/5.0 (Windows NT 10.0; Win64; x64) AppleWebKit/537.36 (KHTML, like Gecko) Chrome/92.0.4515.159 Safari/537.36",1366,657,1366,768,,,,,,,,6,2.3722,0.39453125,-0.389322917,1,0,0,next_trial_button,0,75,75,74,1,beach,visiblesun,noclouds,9,"1028.5714285714284,500",
,,,,,,,gr,gr,gr,m,22,,2021-08-31_17h16.59.845,online_experiment,2021.1.4,Win32,59.86948452,IwAR0Uk6nXaoJshW5YaQM0re79oEZ80FnkHo1co_cAeB8nPu1QNNj9VGMqg4E,FALSE,,"Mozilla/5.0 (Windows NT 10.0; Win64; x64) AppleWebKit/537.36 (KHTML, like Gecko) Chrome/92.0.4515.159 Safari/537.36",1366,657,1366,768,,,,,,,,8,1.4648,0.506510417,-0.401041667,1,0,0,next_trial_button,0,76,76,15,1,landscape,visiblesun,yesclouds,1,"333.3333333333333,500",
,,,,,,,gr,gr,gr,m,22,,2021-08-31_17h16.59.845,online_experiment,2021.1.4,Win32,59.86948452,IwAR0Uk6nXaoJshW5YaQM0re79oEZ80FnkHo1co_cAeB8nPu1QNNj9VGMqg4E,FALSE,,"Mozilla/5.0 (Windows NT 10.0; Win64; x64) AppleWebKit/537.36 (KHTML, like Gecko) Chrome/92.0.4515.159 Safari/537.36",1366,657,1366,768,,,,,,,,7,1.8869,0.447916667,-0.416666667,1,0,0,next_trial_button,0,77,77,32,1,beach,invisiblesun,noclouds,4,"750,500",
,,,,,,,gr,gr,gr,m,22,,2021-08-31_17h16.59.845,online_experiment,2021.1.4,Win32,59.86948452,IwAR0Uk6nXaoJshW5YaQM0re79oEZ80FnkHo1co_cAeB8nPu1QNNj9VGMqg4E,FALSE,,"Mozilla/5.0 (Windows NT 10.0; Win64; x64) AppleWebKit/537.36 (KHTML, like Gecko) Chrome/92.0.4515.159 Safari/537.36",1366,657,1366,768,,,,,,,,8,2.2184,0.428385417,-0.41796875,1,0,0,next_trial_button,0,78,78,4,1,landscape,invisiblesun,noclouds,0,"1276.9171185127807,500",
,,,,,,,gr,gr,gr,m,22,,2021-08-31_17h16.59.845,online_experiment,2021.1.4,Win32,59.86948452,IwAR0Uk6nXaoJshW5YaQM0re79oEZ80FnkHo1co_cAeB8nPu1QNNj9VGMqg4E,FALSE,,"Mozilla/5.0 (Windows NT 10.0; Win64; x64) AppleWebKit/537.36 (KHTML, like Gecko) Chrome/92.0.4515.159 Safari/537.36",1366,657,1366,768,,,,,,,,6,1.6003,0.3984375,-0.388020833,1,0,0,next_trial_button,0,79,79,73,1,beach,invisiblesun,yesclouds,9,"1028.5714285714284,500",
,,,,,,,gr,gr,gr,m,22,,2021-08-31_17h16.59.845,online_experiment,2021.1.4,Win32,59.86948452,IwAR0Uk6nXaoJshW5YaQM0re79oEZ80FnkHo1co_cAeB8nPu1QNNj9VGMqg4E,FALSE,,"Mozilla/5.0 (Windows NT 10.0; Win64; x64) AppleWebKit/537.36 (KHTML, like Gecko) Chrome/92.0.4515.159 Safari/537.36",1366,657,1366,768,,,,,,,,,,,,,,,,,,,,,,,,,"1028.5714285714284,500",241.4075
