language_mouse.x,language_mouse.y,language_mouse.leftButton,language_mouse.midButton,language_mouse.rightButton,language_mouse.time,language_mouse.clicked_name,nationality,mother_tongue,homeland,gender,age,email,date,expName,psychopyVersion,OS,frameRate,fbclid,cancel_experiment,cancel_reasons,client_agent_information,windowWidth,windowHeight,xRes,yRes,start_exp_mouse.x,start_exp_mouse.y,start_exp_mouse.leftButton,start_exp_mouse.midButton,start_exp_mouse.rightButton,start_exp_mouse.time,start_exp_mouse.clicked_name,rating_slider.response,rating_slider.rt,next_trial_mouse.x,next_trial_mouse.y,next_trial_mouse.leftButton,next_trial_mouse.midButton,next_trial_mouse.rightButton,next_trial_mouse.clicked_name,trials.thisRepN,trials.thisTrialN,trials.thisN,trials.thisIndex,trials.ran,environment,sunVisibility,cloudVisibility,imageId,imgSize,globalClockTime
0.245260047,-0.220883369,1,0,0,2.5903,gr_flag,gr,gr,gr,m,30,,2021-09-01_17h15.30.866,online_experiment,2021.1.4,Win32,145.3699666,IwAR3YQMe3eH5ID8Ss00K-rA0MPxvNOoLO-Gi467-bQOjnWs1LLD15irORwx0,FALSE,,"Mozilla/5.0 (Windows NT 10.0; Win64; x64) AppleWebKit/537.36 (KHTML, like Gecko) Chrome/93.0.4577.63 Safari/537.36",2327,1179,2560,1440,,,,,,,,,,,,,,,,,,,,,,,,,,
,,,,,,,gr,gr,gr,m,30,,2021-09-01_17h15.30.866,online_experiment,2021.1.4,Win32,145.3699666,IwAR3YQMe3eH5ID8Ss00K-rA0MPxvNOoLO-Gi467-bQOjnWs1LLD15irORwx0,FALSE,,"Mozilla/5.0 (Windows NT 10.0; Win64; x64) AppleWebKit/537.36 (KHTML, like Gecko) Chrome/93.0.4577.63 Safari/537.36",2327,1179,2560,1440,0.054274569,-0.427842178,1,0,0,148.8332,cont_gr,3,5.16,0.48069297,-0.432009134,1,0,0,next_trial_button,0,0,0,20,1,landscape,invisiblesun,noclouds,2,"755.192878338279,500",
,,,,,,,gr,gr,gr,m,30,,2021-09-01_17h15.30.866,online_experiment,2021.1.4,Win32,145.3699666,IwAR3YQMe3eH5ID8Ss00K-rA0MPxvNOoLO-Gi467-bQOjnWs1LLD15irORwx0,FALSE,,"Mozilla/5.0 (Windows NT 10.0; Win64; x64) AppleWebKit/537.36 (KHTML, like Gecko) Chrome/93.0.4577.63 Safari/537.36",2327,1179,2560,1440,,,,,,,,10,3.8106,0.464025231,-0.42298073,1,0,0,next_trial_button,0,1,1,75,1,beach,visiblesun,yesclouds,9,"1029.6010296010297,500",
,,,,,,,gr,gr,gr,m,30,,2021-09-01_17h15.30.866,online_experiment,2021.1.4,Win32,145.3699666,IwAR3YQMe3eH5ID8Ss00K-rA0MPxvNOoLO-Gi467-bQOjnWs1LLD15irORwx0,FALSE,,"Mozilla/5.0 (Windows NT 10.0; Win64; x64) AppleWebKit/537.36 (KHTML, like Gecko) Chrome/93.0.4577.63 Safari/537.36",2327,1179,2560,1440,,,,,,,,5,5.4005,0.332071628,-0.420202759,1,0,0,next_trial_button,0,2,2,66,1,beach,visiblesun,noclouds,8,"1028.5714285714284,500",
,,,,,,,gr,gr,gr,m,30,,2021-09-01_17h15.30.866,online_experiment,2021.1.4,Win32,145.3699666,IwAR3YQMe3eH5ID8Ss00K-rA0MPxvNOoLO-Gi467-bQOjnWs1LLD15irORwx0,FALSE,,"Mozilla/5.0 (Windows NT 10.0; Win64; x64) AppleWebKit/537.36 (KHTML, like Gecko) Chrome/93.0.4577.63 Safari/537.36",2327,1179,2560,1440,,,,,,,,7,3.8928,0.361934812,-0.411868847,1,0,0,next_trial_button,0,3,3,33,1,beach,invisiblesun,yesclouds,4,"751.5473032714411,500",
,,,,,,,gr,gr,gr,m,30,,2021-09-01_17h15.30.866,online_experiment,2021.1.4,Win32,145.3699666,IwAR3YQMe3eH5ID8Ss00K-rA0MPxvNOoLO-Gi467-bQOjnWs1LLD15irORwx0,FALSE,,"Mozilla/5.0 (Windows NT 10.0; Win64; x64) AppleWebKit/537.36 (KHTML, like Gecko) Chrome/93.0.4577.63 Safari/537.36",2327,1179,2560,1440,,,,,,,,1,2.6804,0.375130172,-0.4257587,1,0,0,next_trial_button,0,4,4,76,1,landscape,invisiblesun,noclouds,9,"1056.6037735849056,500",
,,,,,,,gr,gr,gr,m,30,,2021-09-01_17h15.30.866,online_experiment,2021.1.4,Win32,145.3699666,IwAR3YQMe3eH5ID8Ss00K-rA0MPxvNOoLO-Gi467-bQOjnWs1LLD15irORwx0,FALSE,,"Mozilla/5.0 (Windows NT 10.0; Win64; x64) AppleWebKit/537.36 (KHTML, like Gecko) Chrome/93.0.4577.63 Safari/537.36",2327,1179,2560,1440,,,,,,,,5,2.066,0.448746393,-0.384089141,1,0,0,next_trial_button,0,5,5,16,1,beach,invisiblesun,noclouds,2,"752.8089887640449,500",
,,,,,,,gr,gr,gr,m,30,,2021-09-01_17h15.30.866,online_experiment,2021.1.4,Win32,145.3699666,IwAR3YQMe3eH5ID8Ss00K-rA0MPxvNOoLO-Gi467-bQOjnWs1LLD15irORwx0,FALSE,,"Mozilla/5.0 (Windows NT 10.0; Win64; x64) AppleWebKit/537.36 (KHTML, like Gecko) Chrome/93.0.4577.63 Safari/537.36",2327,1179,2560,1440,,,,,,,,7,2.2157,0.393186981,-0.407701891,1,0,0,next_trial_button,0,6,6,18,1,beach,visiblesun,noclouds,2,"666.6666666666666,500",
,,,,,,,gr,gr,gr,m,30,,2021-09-01_17h15.30.866,online_experiment,2021.1.4,Win32,145.3699666,IwAR3YQMe3eH5ID8Ss00K-rA0MPxvNOoLO-Gi467-bQOjnWs1LLD15irORwx0,FALSE,,"Mozilla/5.0 (Windows NT 10.0; Win64; x64) AppleWebKit/537.36 (KHTML, like Gecko) Chrome/93.0.4577.63 Safari/537.36",2327,1179,2560,1440,,,,,,,,8,2.6713,0.405687849,-0.420202759,1,0,0,next_trial_button,0,7,7,65,1,beach,invisiblesun,yesclouds,8,"750,500",
,,,,,,,gr,gr,gr,m,30,,2021-09-01_17h15.30.866,online_experiment,2021.1.4,Win32,145.3699666,IwAR3YQMe3eH5ID8Ss00K-rA0MPxvNOoLO-Gi467-bQOjnWs1LLD15irORwx0,FALSE,,"Mozilla/5.0 (Windows NT 10.0; Win64; x64) AppleWebKit/537.36 (KHTML, like Gecko) Chrome/93.0.4577.63 Safari/537.36",2327,1179,2560,1440,,,,,,,,9,2.1795,0.389714518,-0.407701891,1,0,0,next_trial_button,0,8,8,2,1,beach,visiblesun,noclouds,0,"375,500",
,,,,,,,gr,gr,gr,m,30,,2021-09-01_17h15.30.866,online_experiment,2021.1.4,Win32,145.3699666,IwAR3YQMe3eH5ID8Ss00K-rA0MPxvNOoLO-Gi467-bQOjnWs1LLD15irORwx0,FALSE,,"Mozilla/5.0 (Windows NT 10.0; Win64; x64) AppleWebKit/537.36 (KHTML, like Gecko) Chrome/93.0.4577.63 Safari/537.36",2327,1179,2560,1440,,,,,,,,10,1.8156,0.36679626,-0.398673487,1,0,0,next_trial_button,0,9,9,14,1,landscape,visiblesun,noclouds,1,"745.9919839679359,500",
,,,,,,,gr,gr,gr,m,30,,2021-09-01_17h15.30.866,online_experiment,2021.1.4,Win32,145.3699666,IwAR3YQMe3eH5ID8Ss00K-rA0MPxvNOoLO-Gi467-bQOjnWs1LLD15irORwx0,FALSE,,"Mozilla/5.0 (Windows NT 10.0; Win64; x64) AppleWebKit/537.36 (KHTML, like Gecko) Chrome/93.0.4577.63 Safari/537.36",2327,1179,2560,1440,,,,,,,,10,1.6422,0.402909878,-0.40214595,1,0,0,next_trial_button,0,10,10,45,1,landscape,invisiblesun,yesclouds,5,"749.6251874062968,500",
,,,,,,,gr,gr,gr,m,30,,2021-09-01_17h15.30.866,online_experiment,2021.1.4,Win32,145.3699666,IwAR3YQMe3eH5ID8Ss00K-rA0MPxvNOoLO-Gi467-bQOjnWs1LLD15irORwx0,FALSE,,"Mozilla/5.0 (Windows NT 10.0; Win64; x64) AppleWebKit/537.36 (KHTML, like Gecko) Chrome/93.0.4577.63 Safari/537.36",2327,1179,2560,1440,,,,,,,,7,3.0221,0.435551033,-0.417424788,1,0,0,next_trial_button,0,11,11,6,1,landscape,visiblesun,noclouds,0,"1413.8005159071367,500",
,,,,,,,gr,gr,gr,m,30,,2021-09-01_17h15.30.866,online_experiment,2021.1.4,Win32,145.3699666,IwAR3YQMe3eH5ID8Ss00K-rA0MPxvNOoLO-Gi467-bQOjnWs1LLD15irORwx0,FALSE,,"Mozilla/5.0 (Windows NT 10.0; Win64; x64) AppleWebKit/537.36 (KHTML, like Gecko) Chrome/93.0.4577.63 Safari/537.36",2327,1179,2560,1440,,,,,,,,8,1.9923,0.462636246,-0.411868847,1,0,0,next_trial_button,0,12,12,35,1,beach,visiblesun,yesclouds,4,"750,500",
,,,,,,,gr,gr,gr,m,30,,2021-09-01_17h15.30.866,online_experiment,2021.1.4,Win32,145.3699666,IwAR3YQMe3eH5ID8Ss00K-rA0MPxvNOoLO-Gi467-bQOjnWs1LLD15irORwx0,FALSE,,"Mozilla/5.0 (Windows NT 10.0; Win64; x64) AppleWebKit/537.36 (KHTML, like Gecko) Chrome/93.0.4577.63 Safari/537.36",2327,1179,2560,1440,,,,,,,,1,1.7063,0.473748128,-0.432703627,1,0,0,next_trial_button,0,13,13,60,1,landscape,invisiblesun,noclouds,7,"666.7268134247564,500",
,,,,,,,gr,gr,gr,m,30,,2021-09-01_17h15.30.866,online_experiment,2021.1.4,Win32,145.3699666,IwAR3YQMe3eH5ID8Ss00K-rA0MPxvNOoLO-Gi467-bQOjnWs1LLD15irORwx0,FALSE,,"Mozilla/5.0 (Windows NT 10.0; Win64; x64) AppleWebKit/537.36 (KHTML, like Gecko) Chrome/93.0.4577.63 Safari/537.36",2327,1179,2560,1440,,,,,,,,6,2.3511,0.369574231,-0.429925656,1,0,0,next_trial_button,0,14,14,61,1,landscape,invisiblesun,yesclouds,7,"500,500",
,,,,,,,gr,gr,gr,m,30,,2021-09-01_17h15.30.866,online_experiment,2021.1.4,Win32,145.3699666,IwAR3YQMe3eH5ID8Ss00K-rA0MPxvNOoLO-Gi467-bQOjnWs1LLD15irORwx0,FALSE,,"Mozilla/5.0 (Windows NT 10.0; Win64; x64) AppleWebKit/537.36 (KHTML, like Gecko) Chrome/93.0.4577.63 Safari/537.36",2327,1179,2560,1440,,,,,,,,10,1.4047,0.395964952,-0.409090877,1,0,0,next_trial_button,0,15,15,38,1,landscape,visiblesun,noclouds,4,"733.3333333333333,500",
,,,,,,,gr,gr,gr,m,30,,2021-09-01_17h15.30.866,online_experiment,2021.1.4,Win32,145.3699666,IwAR3YQMe3eH5ID8Ss00K-rA0MPxvNOoLO-Gi467-bQOjnWs1LLD15irORwx0,FALSE,,"Mozilla/5.0 (Windows NT 10.0; Win64; x64) AppleWebKit/537.36 (KHTML, like Gecko) Chrome/93.0.4577.63 Safari/537.36",2327,1179,2560,1440,,,,,,,,7,1.6473,0.403604371,-0.421591744,1,0,0,next_trial_button,0,16,16,70,1,landscape,visiblesun,noclouds,8,"666.6666666666666,500",
,,,,,,,gr,gr,gr,m,30,,2021-09-01_17h15.30.866,online_experiment,2021.1.4,Win32,145.3699666,IwAR3YQMe3eH5ID8Ss00K-rA0MPxvNOoLO-Gi467-bQOjnWs1LLD15irORwx0,FALSE,,"Mozilla/5.0 (Windows NT 10.0; Win64; x64) AppleWebKit/537.36 (KHTML, like Gecko) Chrome/93.0.4577.63 Safari/537.36",2327,1179,2560,1440,,,,,,,,1,1.6903,0.51611218,-0.441731946,1,0,0,next_trial_button,0,17,17,72,1,beach,invisiblesun,noclouds,9,"888.8888888888888,500",
,,,,,,,gr,gr,gr,m,30,,2021-09-01_17h15.30.866,online_experiment,2021.1.4,Win32,145.3699666,IwAR3YQMe3eH5ID8Ss00K-rA0MPxvNOoLO-Gi467-bQOjnWs1LLD15irORwx0,FALSE,,"Mozilla/5.0 (Windows NT 10.0; Win64; x64) AppleWebKit/537.36 (KHTML, like Gecko) Chrome/93.0.4577.63 Safari/537.36",2327,1179,2560,1440,,,,,,,,7,1.8298,0.447357408,-0.434092527,1,0,0,next_trial_button,0,18,18,31,1,landscape,visiblesun,yesclouds,3,"638.0622837370242,500",
,,,,,,,gr,gr,gr,m,30,,2021-09-01_17h15.30.866,online_experiment,2021.1.4,Win32,145.3699666,IwAR3YQMe3eH5ID8Ss00K-rA0MPxvNOoLO-Gi467-bQOjnWs1LLD15irORwx0,FALSE,,"Mozilla/5.0 (Windows NT 10.0; Win64; x64) AppleWebKit/537.36 (KHTML, like Gecko) Chrome/93.0.4577.63 Safari/537.36",2327,1179,2560,1440,,,,,,,,8,1.5978,0.445273845,-0.410479862,1,0,0,next_trial_button,0,19,19,59,1,beach,visiblesun,yesclouds,7,"888.9689978370584,500",
,,,,,,,gr,gr,gr,m,30,,2021-09-01_17h15.30.866,online_experiment,2021.1.4,Win32,145.3699666,IwAR3YQMe3eH5ID8Ss00K-rA0MPxvNOoLO-Gi467-bQOjnWs1LLD15irORwx0,FALSE,,"Mozilla/5.0 (Windows NT 10.0; Win64; x64) AppleWebKit/537.36 (KHTML, like Gecko) Chrome/93.0.4577.63 Safari/537.36",2327,1179,2560,1440,,,,,,,,8,2.6845,0.360545827,-0.41534131,1,0,0,next_trial_button,0,20,20,43,1,beach,visiblesun,yesclouds,5,"750,500",
,,,,,,,gr,gr,gr,m,30,,2021-09-01_17h15.30.866,online_experiment,2021.1.4,Win32,145.3699666,IwAR3YQMe3eH5ID8Ss00K-rA0MPxvNOoLO-Gi467-bQOjnWs1LLD15irORwx0,FALSE,,"Mozilla/5.0 (Windows NT 10.0; Win64; x64) AppleWebKit/537.36 (KHTML, like Gecko) Chrome/93.0.4577.63 Safari/537.36",2327,1179,2560,1440,,,,,,,,6,2.0674,0.375130172,-0.420202759,1,0,0,next_trial_button,0,21,21,47,1,landscape,visiblesun,yesclouds,5,"666.6666666666666,500",
,,,,,,,gr,gr,gr,m,30,,2021-09-01_17h15.30.866,online_experiment,2021.1.4,Win32,145.3699666,IwAR3YQMe3eH5ID8Ss00K-rA0MPxvNOoLO-Gi467-bQOjnWs1LLD15irORwx0,FALSE,,"Mozilla/5.0 (Windows NT 10.0; Win64; x64) AppleWebKit/537.36 (KHTML, like Gecko) Chrome/93.0.4577.63 Safari/537.36",2327,1179,2560,1440,,,,,,,,5,1.8816,0.333460613,-0.42298073,1,0,0,next_trial_button,0,22,22,37,1,landscape,invisiblesun,yesclouds,4,"669.4214876033058,500",
,,,,,,,gr,gr,gr,m,30,,2021-09-01_17h15.30.866,online_experiment,2021.1.4,Win32,145.3699666,IwAR3YQMe3eH5ID8Ss00K-rA0MPxvNOoLO-Gi467-bQOjnWs1LLD15irORwx0,FALSE,,"Mozilla/5.0 (Windows NT 10.0; Win64; x64) AppleWebKit/537.36 (KHTML, like Gecko) Chrome/93.0.4577.63 Safari/537.36",2327,1179,2560,1440,,,,,,,,8,3.2018,0.446662915,-0.419508266,1,0,0,next_trial_button,0,23,23,74,1,beach,visiblesun,noclouds,9,"1028.5714285714284,500",
,,,,,,,gr,gr,gr,m,30,,2021-09-01_17h15.30.866,online_experiment,2021.1.4,Win32,145.3699666,IwAR3YQMe3eH5ID8Ss00K-rA0MPxvNOoLO-Gi467-bQOjnWs1LLD15irORwx0,FALSE,,"Mozilla/5.0 (Windows NT 10.0; Win64; x64) AppleWebKit/537.36 (KHTML, like Gecko) Chrome/93.0.4577.63 Safari/537.36",2327,1179,2560,1440,,,,,,,,8,1.4571,0.32998815,-0.41534131,1,0,0,next_trial_button,0,24,24,73,1,beach,invisiblesun,yesclouds,9,"1028.5714285714284,500",
,,,,,,,gr,gr,gr,m,30,,2021-09-01_17h15.30.866,online_experiment,2021.1.4,Win32,145.3699666,IwAR3YQMe3eH5ID8Ss00K-rA0MPxvNOoLO-Gi467-bQOjnWs1LLD15irORwx0,FALSE,,"Mozilla/5.0 (Windows NT 10.0; Win64; x64) AppleWebKit/537.36 (KHTML, like Gecko) Chrome/93.0.4577.63 Safari/537.36",2327,1179,2560,1440,,,,,,,,5,1.9716,0.434162047,-0.397284502,1,0,0,next_trial_button,0,25,25,48,1,beach,invisiblesun,noclouds,6,"1028.5714285714284,500",
,,,,,,,gr,gr,gr,m,30,,2021-09-01_17h15.30.866,online_experiment,2021.1.4,Win32,145.3699666,IwAR3YQMe3eH5ID8Ss00K-rA0MPxvNOoLO-Gi467-bQOjnWs1LLD15irORwx0,FALSE,,"Mozilla/5.0 (Windows NT 10.0; Win64; x64) AppleWebKit/537.36 (KHTML, like Gecko) Chrome/93.0.4577.63 Safari/537.36",2327,1179,2560,1440,,,,,,,,2,1.4974,0.444579437,-0.401451457,1,0,0,next_trial_button,0,26,26,68,1,landscape,invisiblesun,noclouds,8,"666.6666666666666,500",
,,,,,,,gr,gr,gr,m,30,,2021-09-01_17h15.30.866,online_experiment,2021.1.4,Win32,145.3699666,IwAR3YQMe3eH5ID8Ss00K-rA0MPxvNOoLO-Gi467-bQOjnWs1LLD15irORwx0,FALSE,,"Mozilla/5.0 (Windows NT 10.0; Win64; x64) AppleWebKit/537.36 (KHTML, like Gecko) Chrome/93.0.4577.63 Safari/537.36",2327,1179,2560,1440,,,,,,,,7,1.8089,0.393881474,-0.420202759,1,0,0,next_trial_button,0,27,27,21,1,landscape,invisiblesun,yesclouds,2,"750,500",
,,,,,,,gr,gr,gr,m,30,,2021-09-01_17h15.30.866,online_experiment,2021.1.4,Win32,145.3699666,IwAR3YQMe3eH5ID8Ss00K-rA0MPxvNOoLO-Gi467-bQOjnWs1LLD15irORwx0,FALSE,,"Mozilla/5.0 (Windows NT 10.0; Win64; x64) AppleWebKit/537.36 (KHTML, like Gecko) Chrome/93.0.4577.63 Safari/537.36",2327,1179,2560,1440,,,,,,,,5,1.8869,0.409160312,-0.438259568,1,0,0,next_trial_button,0,28,28,34,1,beach,visiblesun,noclouds,4,"749.6251874062968,500",
,,,,,,,gr,gr,gr,m,30,,2021-09-01_17h15.30.866,online_experiment,2021.1.4,Win32,145.3699666,IwAR3YQMe3eH5ID8Ss00K-rA0MPxvNOoLO-Gi467-bQOjnWs1LLD15irORwx0,FALSE,,"Mozilla/5.0 (Windows NT 10.0; Win64; x64) AppleWebKit/537.36 (KHTML, like Gecko) Chrome/93.0.4577.63 Safari/537.36",2327,1179,2560,1440,,,,,,,,7,1.7125,0.313320326,-0.423675137,1,0,0,next_trial_button,0,29,29,23,1,landscape,visiblesun,yesclouds,2,"767.97829036635,500",
,,,,,,,gr,gr,gr,m,30,,2021-09-01_17h15.30.866,online_experiment,2021.1.4,Win32,145.3699666,IwAR3YQMe3eH5ID8Ss00K-rA0MPxvNOoLO-Gi467-bQOjnWs1LLD15irORwx0,FALSE,,"Mozilla/5.0 (Windows NT 10.0; Win64; x64) AppleWebKit/537.36 (KHTML, like Gecko) Chrome/93.0.4577.63 Safari/537.36",2327,1179,2560,1440,,,,,,,,10,1.5819,0.42443915,-0.41256334,1,0,0,next_trial_button,0,30,30,29,1,landscape,invisiblesun,yesclouds,3,"749.8660953401178,500",
,,,,,,,gr,gr,gr,m,30,,2021-09-01_17h15.30.866,online_experiment,2021.1.4,Win32,145.3699666,IwAR3YQMe3eH5ID8Ss00K-rA0MPxvNOoLO-Gi467-bQOjnWs1LLD15irORwx0,FALSE,,"Mozilla/5.0 (Windows NT 10.0; Win64; x64) AppleWebKit/537.36 (KHTML, like Gecko) Chrome/93.0.4577.63 Safari/537.36",2327,1179,2560,1440,,,,,,,,9,1.5797,0.314709312,-0.4257587,1,0,0,next_trial_button,0,31,31,17,1,beach,invisiblesun,yesclouds,2,"684.8635235732011,500",
,,,,,,,gr,gr,gr,m,30,,2021-09-01_17h15.30.866,online_experiment,2021.1.4,Win32,145.3699666,IwAR3YQMe3eH5ID8Ss00K-rA0MPxvNOoLO-Gi467-bQOjnWs1LLD15irORwx0,FALSE,,"Mozilla/5.0 (Windows NT 10.0; Win64; x64) AppleWebKit/537.36 (KHTML, like Gecko) Chrome/93.0.4577.63 Safari/537.36",2327,1179,2560,1440,,,,,,,,7,1.9669,0.347350466,-0.418813689,1,0,0,next_trial_button,0,32,32,32,1,beach,invisiblesun,noclouds,4,"750,500",
,,,,,,,gr,gr,gr,m,30,,2021-09-01_17h15.30.866,online_experiment,2021.1.4,Win32,145.3699666,IwAR3YQMe3eH5ID8Ss00K-rA0MPxvNOoLO-Gi467-bQOjnWs1LLD15irORwx0,FALSE,,"Mozilla/5.0 (Windows NT 10.0; Win64; x64) AppleWebKit/537.36 (KHTML, like Gecko) Chrome/93.0.4577.63 Safari/537.36",2327,1179,2560,1440,,,,,,,,4,1.7484,0.432772977,-0.414646818,1,0,0,next_trial_button,0,33,33,36,1,landscape,invisiblesun,noclouds,4,"281.25,500",
,,,,,,,gr,gr,gr,m,30,,2021-09-01_17h15.30.866,online_experiment,2021.1.4,Win32,145.3699666,IwAR3YQMe3eH5ID8Ss00K-rA0MPxvNOoLO-Gi467-bQOjnWs1LLD15irORwx0,FALSE,,"Mozilla/5.0 (Windows NT 10.0; Win64; x64) AppleWebKit/537.36 (KHTML, like Gecko) Chrome/93.0.4577.63 Safari/537.36",2327,1179,2560,1440,,,,,,,,4,1.9361,0.461247261,-0.419508266,1,0,0,next_trial_button,0,34,34,0,1,beach,invisiblesun,noclouds,0,"750,500",
,,,,,,,gr,gr,gr,m,30,,2021-09-01_17h15.30.866,online_experiment,2021.1.4,Win32,145.3699666,IwAR3YQMe3eH5ID8Ss00K-rA0MPxvNOoLO-Gi467-bQOjnWs1LLD15irORwx0,FALSE,,"Mozilla/5.0 (Windows NT 10.0; Win64; x64) AppleWebKit/537.36 (KHTML, like Gecko) Chrome/93.0.4577.63 Safari/537.36",2327,1179,2560,1440,,,,,,,,3,1.8141,0.388325532,-0.41256334,1,0,0,next_trial_button,0,35,35,77,1,landscape,invisiblesun,yesclouds,9,"888.8888888888888,500",
,,,,,,,gr,gr,gr,m,30,,2021-09-01_17h15.30.866,online_experiment,2021.1.4,Win32,145.3699666,IwAR3YQMe3eH5ID8Ss00K-rA0MPxvNOoLO-Gi467-bQOjnWs1LLD15irORwx0,FALSE,,"Mozilla/5.0 (Windows NT 10.0; Win64; x64) AppleWebKit/537.36 (KHTML, like Gecko) Chrome/93.0.4577.63 Safari/537.36",2327,1179,2560,1440,,,,,,,,8,1.6025,0.359851334,-0.430620149,1,0,0,next_trial_button,0,36,36,49,1,beach,invisiblesun,yesclouds,6,"858.4474885844749,500",
,,,,,,,gr,gr,gr,m,30,,2021-09-01_17h15.30.866,online_experiment,2021.1.4,Win32,145.3699666,IwAR3YQMe3eH5ID8Ss00K-rA0MPxvNOoLO-Gi467-bQOjnWs1LLD15irORwx0,FALSE,,"Mozilla/5.0 (Windows NT 10.0; Win64; x64) AppleWebKit/537.36 (KHTML, like Gecko) Chrome/93.0.4577.63 Safari/537.36",2327,1179,2560,1440,,,,,,,,8,1.5588,0.39040901,-0.416730296,1,0,0,next_trial_button,0,37,37,9,1,beach,invisiblesun,yesclouds,1,"750,500",
,,,,,,,gr,gr,gr,m,30,,2021-09-01_17h15.30.866,online_experiment,2021.1.4,Win32,145.3699666,IwAR3YQMe3eH5ID8Ss00K-rA0MPxvNOoLO-Gi467-bQOjnWs1LLD15irORwx0,FALSE,,"Mozilla/5.0 (Windows NT 10.0; Win64; x64) AppleWebKit/537.36 (KHTML, like Gecko) Chrome/93.0.4577.63 Safari/537.36",2327,1179,2560,1440,,,,,,,,7,1.8454,0.392492488,-0.420202759,1,0,0,next_trial_button,0,38,38,56,1,beach,invisiblesun,noclouds,7,"1028.5714285714284,500",
,,,,,,,gr,gr,gr,m,30,,2021-09-01_17h15.30.866,online_experiment,2021.1.4,Win32,145.3699666,IwAR3YQMe3eH5ID8Ss00K-rA0MPxvNOoLO-Gi467-bQOjnWs1LLD15irORwx0,FALSE,,"Mozilla/5.0 (Windows NT 10.0; Win64; x64) AppleWebKit/537.36 (KHTML, like Gecko) Chrome/93.0.4577.63 Safari/537.36",2327,1179,2560,1440,,,,,,,,9,1.5589,0.393881474,-0.41117427,1,0,0,next_trial_button,0,39,39,11,1,beach,visiblesun,yesclouds,1,"989.8132427843803,500",
,,,,,,,gr,gr,gr,m,30,,2021-09-01_17h15.30.866,online_experiment,2021.1.4,Win32,145.3699666,IwAR3YQMe3eH5ID8Ss00K-rA0MPxvNOoLO-Gi467-bQOjnWs1LLD15irORwx0,FALSE,,"Mozilla/5.0 (Windows NT 10.0; Win64; x64) AppleWebKit/537.36 (KHTML, like Gecko) Chrome/93.0.4577.63 Safari/537.36",2327,1179,2560,1440,,,,,,,,9,1.5635,0.453607841,-0.413257832,1,0,0,next_trial_button,0,40,40,10,1,beach,visiblesun,noclouds,1,"747.0261697065821,500",
,,,,,,,gr,gr,gr,m,30,,2021-09-01_17h15.30.866,online_experiment,2021.1.4,Win32,145.3699666,IwAR3YQMe3eH5ID8Ss00K-rA0MPxvNOoLO-Gi467-bQOjnWs1LLD15irORwx0,FALSE,,"Mozilla/5.0 (Windows NT 10.0; Win64; x64) AppleWebKit/537.36 (KHTML, like Gecko) Chrome/93.0.4577.63 Safari/537.36",2327,1179,2560,1440,,,,,,,,3,1.9434,0.398742922,-0.411868847,1,0,0,next_trial_button,0,41,41,28,1,landscape,invisiblesun,noclouds,3,"888.8888888888888,500",
,,,,,,,gr,gr,gr,m,30,,2021-09-01_17h15.30.866,online_experiment,2021.1.4,Win32,145.3699666,IwAR3YQMe3eH5ID8Ss00K-rA0MPxvNOoLO-Gi467-bQOjnWs1LLD15irORwx0,FALSE,,"Mozilla/5.0 (Windows NT 10.0; Win64; x64) AppleWebKit/537.36 (KHTML, like Gecko) Chrome/93.0.4577.63 Safari/537.36",2327,1179,2560,1440,,,,,,,,4,1.6976,0.350128437,-0.434092527,1,0,0,next_trial_button,0,42,42,64,1,beach,invisiblesun,noclouds,8,"1028.5714285714284,500",
,,,,,,,gr,gr,gr,m,30,,2021-09-01_17h15.30.866,online_experiment,2021.1.4,Win32,145.3699666,IwAR3YQMe3eH5ID8Ss00K-rA0MPxvNOoLO-Gi467-bQOjnWs1LLD15irORwx0,FALSE,,"Mozilla/5.0 (Windows NT 10.0; Win64; x64) AppleWebKit/537.36 (KHTML, like Gecko) Chrome/93.0.4577.63 Safari/537.36",2327,1179,2560,1440,,,,,,,,5,1.8435,0.397353937,-0.42298073,1,0,0,next_trial_button,0,43,43,78,1,landscape,visiblesun,noclouds,9,"666.6666666666666,500",
,,,,,,,gr,gr,gr,m,30,,2021-09-01_17h15.30.866,online_experiment,2021.1.4,Win32,145.3699666,IwAR3YQMe3eH5ID8Ss00K-rA0MPxvNOoLO-Gi467-bQOjnWs1LLD15irORwx0,FALSE,,"Mozilla/5.0 (Windows NT 10.0; Win64; x64) AppleWebKit/537.36 (KHTML, like Gecko) Chrome/93.0.4577.63 Safari/537.36",2327,1179,2560,1440,,,,,,,,7,2.7551,0.414716168,-0.416035718,1,0,0,next_trial_button,0,44,44,57,1,beach,invisiblesun,yesclouds,7,"749.707488299532,500",
,,,,,,,gr,gr,gr,m,30,,2021-09-01_17h15.30.866,online_experiment,2021.1.4,Win32,145.3699666,IwAR3YQMe3eH5ID8Ss00K-rA0MPxvNOoLO-Gi467-bQOjnWs1LLD15irORwx0,FALSE,,"Mozilla/5.0 (Windows NT 10.0; Win64; x64) AppleWebKit/537.36 (KHTML, like Gecko) Chrome/93.0.4577.63 Safari/537.36",2327,1179,2560,1440,,,,,,,,8,2.4169,0.414716168,-0.420897252,1,0,0,next_trial_button,0,45,45,69,1,landscape,invisiblesun,yesclouds,8,"750,500",
,,,,,,,gr,gr,gr,m,30,,2021-09-01_17h15.30.866,online_experiment,2021.1.4,Win32,145.3699666,IwAR3YQMe3eH5ID8Ss00K-rA0MPxvNOoLO-Gi467-bQOjnWs1LLD15irORwx0,FALSE,,"Mozilla/5.0 (Windows NT 10.0; Win64; x64) AppleWebKit/537.36 (KHTML, like Gecko) Chrome/93.0.4577.63 Safari/537.36",2327,1179,2560,1440,,,,,,,,5,1.4022,0.517501165,-0.422286237,1,0,0,next_trial_button,0,46,46,62,1,landscape,visiblesun,noclouds,7,"417.42389822807814,500",
,,,,,,,gr,gr,gr,m,30,,2021-09-01_17h15.30.866,online_experiment,2021.1.4,Win32,145.3699666,IwAR3YQMe3eH5ID8Ss00K-rA0MPxvNOoLO-Gi467-bQOjnWs1LLD15irORwx0,FALSE,,"Mozilla/5.0 (Windows NT 10.0; Win64; x64) AppleWebKit/537.36 (KHTML, like Gecko) Chrome/93.0.4577.63 Safari/537.36",2327,1179,2560,1440,,,,,,,,5,1.8924,0.470275665,-0.421591744,1,0,0,next_trial_button,0,47,47,22,1,landscape,visiblesun,noclouds,2,"749.3333333333333,500",
,,,,,,,gr,gr,gr,m,30,,2021-09-01_17h15.30.866,online_experiment,2021.1.4,Win32,145.3699666,IwAR3YQMe3eH5ID8Ss00K-rA0MPxvNOoLO-Gi467-bQOjnWs1LLD15irORwx0,FALSE,,"Mozilla/5.0 (Windows NT 10.0; Win64; x64) AppleWebKit/537.36 (KHTML, like Gecko) Chrome/93.0.4577.63 Safari/537.36",2327,1179,2560,1440,,,,,,,,7,1.5575,0.32998815,-0.42298073,1,0,0,next_trial_button,0,48,48,54,1,landscape,visiblesun,noclouds,6,"695.0043821209465,500",
,,,,,,,gr,gr,gr,m,30,,2021-09-01_17h15.30.866,online_experiment,2021.1.4,Win32,145.3699666,IwAR3YQMe3eH5ID8Ss00K-rA0MPxvNOoLO-Gi467-bQOjnWs1LLD15irORwx0,FALSE,,"Mozilla/5.0 (Windows NT 10.0; Win64; x64) AppleWebKit/537.36 (KHTML, like Gecko) Chrome/93.0.4577.63 Safari/537.36",2327,1179,2560,1440,,,,,,,,6,1.6624,0.509167169,-0.409785369,1,0,0,next_trial_button,0,49,49,25,1,beach,invisiblesun,yesclouds,3,"750.4690431519699,500",
,,,,,,,gr,gr,gr,m,30,,2021-09-01_17h15.30.866,online_experiment,2021.1.4,Win32,145.3699666,IwAR3YQMe3eH5ID8Ss00K-rA0MPxvNOoLO-Gi467-bQOjnWs1LLD15irORwx0,FALSE,,"Mozilla/5.0 (Windows NT 10.0; Win64; x64) AppleWebKit/537.36 (KHTML, like Gecko) Chrome/93.0.4577.63 Safari/537.36",2327,1179,2560,1440,,,,,,,,8,1.7124,0.395270459,-0.42298073,1,0,0,next_trial_button,0,50,50,53,1,landscape,invisiblesun,yesclouds,6,"750.0695023630803,500",
,,,,,,,gr,gr,gr,m,30,,2021-09-01_17h15.30.866,online_experiment,2021.1.4,Win32,145.3699666,IwAR3YQMe3eH5ID8Ss00K-rA0MPxvNOoLO-Gi467-bQOjnWs1LLD15irORwx0,FALSE,,"Mozilla/5.0 (Windows NT 10.0; Win64; x64) AppleWebKit/537.36 (KHTML, like Gecko) Chrome/93.0.4577.63 Safari/537.36",2327,1179,2560,1440,,,,,,,,8,1.7183,0.363323797,-0.420897252,1,0,0,next_trial_button,0,51,51,55,1,landscape,visiblesun,yesclouds,6,"749.8819083608881,500",
,,,,,,,gr,gr,gr,m,30,,2021-09-01_17h15.30.866,online_experiment,2021.1.4,Win32,145.3699666,IwAR3YQMe3eH5ID8Ss00K-rA0MPxvNOoLO-Gi467-bQOjnWs1LLD15irORwx0,FALSE,,"Mozilla/5.0 (Windows NT 10.0; Win64; x64) AppleWebKit/537.36 (KHTML, like Gecko) Chrome/93.0.4577.63 Safari/537.36",2327,1179,2560,1440,,,,,,,,7,1.3789,0.416105238,-0.413952325,1,0,0,next_trial_button,0,52,52,58,1,beach,visiblesun,noclouds,7,"1028.5714285714284,500",
,,,,,,,gr,gr,gr,m,30,,2021-09-01_17h15.30.866,online_experiment,2021.1.4,Win32,145.3699666,IwAR3YQMe3eH5ID8Ss00K-rA0MPxvNOoLO-Gi467-bQOjnWs1LLD15irORwx0,FALSE,,"Mozilla/5.0 (Windows NT 10.0; Win64; x64) AppleWebKit/537.36 (KHTML, like Gecko) Chrome/93.0.4577.63 Safari/537.36",2327,1179,2560,1440,,,,,,,,8,1.5725,0.355684378,-0.422286237,1,0,0,next_trial_button,0,53,53,12,1,landscape,invisiblesun,noclouds,1,"666.6666666666666,500",
,,,,,,,gr,gr,gr,m,30,,2021-09-01_17h15.30.866,online_experiment,2021.1.4,Win32,145.3699666,IwAR3YQMe3eH5ID8Ss00K-rA0MPxvNOoLO-Gi467-bQOjnWs1LLD15irORwx0,FALSE,,"Mozilla/5.0 (Windows NT 10.0; Win64; x64) AppleWebKit/537.36 (KHTML, like Gecko) Chrome/93.0.4577.63 Safari/537.36",2327,1179,2560,1440,,,,,,,,4,1.9066,0.363323797,-0.429231163,1,0,0,next_trial_button,0,54,54,50,1,beach,visiblesun,noclouds,6,"666.6666666666666,500",
,,,,,,,gr,gr,gr,m,30,,2021-09-01_17h15.30.866,online_experiment,2021.1.4,Win32,145.3699666,IwAR3YQMe3eH5ID8Ss00K-rA0MPxvNOoLO-Gi467-bQOjnWs1LLD15irORwx0,FALSE,,"Mozilla/5.0 (Windows NT 10.0; Win64; x64) AppleWebKit/537.36 (KHTML, like Gecko) Chrome/93.0.4577.63 Safari/537.36",2327,1179,2560,1440,,,,,,,,6,1.5524,0.362629305,-0.430620149,1,0,0,next_trial_button,0,55,55,26,1,beach,visiblesun,noclouds,3,"888.8888888888888,500",
,,,,,,,gr,gr,gr,m,30,,2021-09-01_17h15.30.866,online_experiment,2021.1.4,Win32,145.3699666,IwAR3YQMe3eH5ID8Ss00K-rA0MPxvNOoLO-Gi467-bQOjnWs1LLD15irORwx0,FALSE,,"Mozilla/5.0 (Windows NT 10.0; Win64; x64) AppleWebKit/537.36 (KHTML, like Gecko) Chrome/93.0.4577.63 Safari/537.36",2327,1179,2560,1440,,,,,,,,8,1.3755,0.436940018,-0.416035718,1,0,0,next_trial_button,0,56,56,51,1,beach,visiblesun,yesclouds,6,"657.1279916753382,500",
,,,,,,,gr,gr,gr,m,30,,2021-09-01_17h15.30.866,online_experiment,2021.1.4,Win32,145.3699666,IwAR3YQMe3eH5ID8Ss00K-rA0MPxvNOoLO-Gi467-bQOjnWs1LLD15irORwx0,FALSE,,"Mozilla/5.0 (Windows NT 10.0; Win64; x64) AppleWebKit/537.36 (KHTML, like Gecko) Chrome/93.0.4577.63 Safari/537.36",2327,1179,2560,1440,,,,,,,,6,1.7772,0.41124379,-0.411868847,1,0,0,next_trial_button,0,57,57,42,1,beach,visiblesun,noclouds,5,"834.4594594594595,500",
,,,,,,,gr,gr,gr,m,30,,2021-09-01_17h15.30.866,online_experiment,2021.1.4,Win32,145.3699666,IwAR3YQMe3eH5ID8Ss00K-rA0MPxvNOoLO-Gi467-bQOjnWs1LLD15irORwx0,FALSE,,"Mozilla/5.0 (Windows NT 10.0; Win64; x64) AppleWebKit/537.36 (KHTML, like Gecko) Chrome/93.0.4577.63 Safari/537.36",2327,1179,2560,1440,,,,,,,,6,1.3986,0.373741102,-0.419508266,1,0,0,next_trial_button,0,58,58,30,1,landscape,visiblesun,noclouds,3,"346.3035019455253,500",
,,,,,,,gr,gr,gr,m,30,,2021-09-01_17h15.30.866,online_experiment,2021.1.4,Win32,145.3699666,IwAR3YQMe3eH5ID8Ss00K-rA0MPxvNOoLO-Gi467-bQOjnWs1LLD15irORwx0,FALSE,,"Mozilla/5.0 (Windows NT 10.0; Win64; x64) AppleWebKit/537.36 (KHTML, like Gecko) Chrome/93.0.4577.63 Safari/537.36",2327,1179,2560,1440,,,,,,,,5,4.5952,0.42443915,-0.427842178,1,0,0,next_trial_button,0,59,59,79,1,landscape,visiblesun,yesclouds,9,"1028.5714285714284,500",
,,,,,,,gr,gr,gr,m,30,,2021-09-01_17h15.30.866,online_experiment,2021.1.4,Win32,145.3699666,IwAR3YQMe3eH5ID8Ss00K-rA0MPxvNOoLO-Gi467-bQOjnWs1LLD15irORwx0,FALSE,,"Mozilla/5.0 (Windows NT 10.0; Win64; x64) AppleWebKit/537.36 (KHTML, like Gecko) Chrome/93.0.4577.63 Safari/537.36",2327,1179,2560,1440,,,,,,,,8,1.863,0.338321977,-0.41256334,1,0,0,next_trial_button,0,60,60,3,1,beach,visiblesun,yesclouds,0,"1152.5122276567363,500",
,,,,,,,gr,gr,gr,m,30,,2021-09-01_17h15.30.866,online_experiment,2021.1.4,Win32,145.3699666,IwAR3YQMe3eH5ID8Ss00K-rA0MPxvNOoLO-Gi467-bQOjnWs1LLD15irORwx0,FALSE,,"Mozilla/5.0 (Windows NT 10.0; Win64; x64) AppleWebKit/537.36 (KHTML, like Gecko) Chrome/93.0.4577.63 Safari/537.36",2327,1179,2560,1440,,,,,,,,3,3.8895,0.355684378,-0.422286237,1,0,0,next_trial_button,0,61,61,44,1,landscape,invisiblesun,noclouds,5,"666.6666666666666,500",
,,,,,,,gr,gr,gr,m,30,,2021-09-01_17h15.30.866,online_experiment,2021.1.4,Win32,145.3699666,IwAR3YQMe3eH5ID8Ss00K-rA0MPxvNOoLO-Gi467-bQOjnWs1LLD15irORwx0,FALSE,,"Mozilla/5.0 (Windows NT 10.0; Win64; x64) AppleWebKit/537.36 (KHTML, like Gecko) Chrome/93.0.4577.63 Safari/537.36",2327,1179,2560,1440,,,,,,,,1,1.7487,0.467497694,-0.438259568,1,0,0,next_trial_button,0,62,62,52,1,landscape,invisiblesun,noclouds,6,"666.6666666666666,500",
,,,,,,,gr,gr,gr,m,30,,2021-09-01_17h15.30.866,online_experiment,2021.1.4,Win32,145.3699666,IwAR3YQMe3eH5ID8Ss00K-rA0MPxvNOoLO-Gi467-bQOjnWs1LLD15irORwx0,FALSE,,"Mozilla/5.0 (Windows NT 10.0; Win64; x64) AppleWebKit/537.36 (KHTML, like Gecko) Chrome/93.0.4577.63 Safari/537.36",2327,1179,2560,1440,,,,,,,,10,1.6937,0.37721365,-0.420202759,1,0,0,next_trial_button,0,63,63,46,1,landscape,visiblesun,noclouds,5,"750,500",
,,,,,,,gr,gr,gr,m,30,,2021-09-01_17h15.30.866,online_experiment,2021.1.4,Win32,145.3699666,IwAR3YQMe3eH5ID8Ss00K-rA0MPxvNOoLO-Gi467-bQOjnWs1LLD15irORwx0,FALSE,,"Mozilla/5.0 (Windows NT 10.0; Win64; x64) AppleWebKit/537.36 (KHTML, like Gecko) Chrome/93.0.4577.63 Safari/537.36",2327,1179,2560,1440,,,,,,,,8,2.0442,0.425828135,-0.42298073,1,0,0,next_trial_button,0,64,64,67,1,beach,visiblesun,yesclouds,8,"748.1481481481482,500",
,,,,,,,gr,gr,gr,m,30,,2021-09-01_17h15.30.866,online_experiment,2021.1.4,Win32,145.3699666,IwAR3YQMe3eH5ID8Ss00K-rA0MPxvNOoLO-Gi467-bQOjnWs1LLD15irORwx0,FALSE,,"Mozilla/5.0 (Windows NT 10.0; Win64; x64) AppleWebKit/537.36 (KHTML, like Gecko) Chrome/93.0.4577.63 Safari/537.36",2327,1179,2560,1440,,,,,,,,5,1.926,0.440412396,-0.409090877,1,0,0,next_trial_button,0,65,65,40,1,beach,invisiblesun,noclouds,5,"1028.5714285714284,500",
,,,,,,,gr,gr,gr,m,30,,2021-09-01_17h15.30.866,online_experiment,2021.1.4,Win32,145.3699666,IwAR3YQMe3eH5ID8Ss00K-rA0MPxvNOoLO-Gi467-bQOjnWs1LLD15irORwx0,FALSE,,"Mozilla/5.0 (Windows NT 10.0; Win64; x64) AppleWebKit/537.36 (KHTML, like Gecko) Chrome/93.0.4577.63 Safari/537.36",2327,1179,2560,1440,,,,,,,,8,1.5794,0.302208444,-0.411868847,1,0,0,next_trial_button,0,66,66,15,1,landscape,visiblesun,yesclouds,1,"333.3333333333333,500",
,,,,,,,gr,gr,gr,m,30,,2021-09-01_17h15.30.866,online_experiment,2021.1.4,Win32,145.3699666,IwAR3YQMe3eH5ID8Ss00K-rA0MPxvNOoLO-Gi467-bQOjnWs1LLD15irORwx0,FALSE,,"Mozilla/5.0 (Windows NT 10.0; Win64; x64) AppleWebKit/537.36 (KHTML, like Gecko) Chrome/93.0.4577.63 Safari/537.36",2327,1179,2560,1440,,,,,,,,10,1.4762,0.4008264,-0.413257832,1,0,0,next_trial_button,0,67,67,41,1,beach,invisiblesun,yesclouds,5,"1248.4394506866417,500",
,,,,,,,gr,gr,gr,m,30,,2021-09-01_17h15.30.866,online_experiment,2021.1.4,Win32,145.3699666,IwAR3YQMe3eH5ID8Ss00K-rA0MPxvNOoLO-Gi467-bQOjnWs1LLD15irORwx0,FALSE,,"Mozilla/5.0 (Windows NT 10.0; Win64; x64) AppleWebKit/537.36 (KHTML, like Gecko) Chrome/93.0.4577.63 Safari/537.36",2327,1179,2560,1440,,,,,,,,9,1.5805,0.361934812,-0.4257587,1,0,0,next_trial_button,0,68,68,24,1,beach,invisiblesun,noclouds,3,"750.089190153407,500",
,,,,,,,gr,gr,gr,m,30,,2021-09-01_17h15.30.866,online_experiment,2021.1.4,Win32,145.3699666,IwAR3YQMe3eH5ID8Ss00K-rA0MPxvNOoLO-Gi467-bQOjnWs1LLD15irORwx0,FALSE,,"Mozilla/5.0 (Windows NT 10.0; Win64; x64) AppleWebKit/537.36 (KHTML, like Gecko) Chrome/93.0.4577.63 Safari/537.36",2327,1179,2560,1440,,,,,,,,7,1.6685,0.403604371,-0.422286237,1,0,0,next_trial_button,0,69,69,19,1,beach,visiblesun,yesclouds,2,"770.1393095093882,500",
,,,,,,,gr,gr,gr,m,30,,2021-09-01_17h15.30.866,online_experiment,2021.1.4,Win32,145.3699666,IwAR3YQMe3eH5ID8Ss00K-rA0MPxvNOoLO-Gi467-bQOjnWs1LLD15irORwx0,FALSE,,"Mozilla/5.0 (Windows NT 10.0; Win64; x64) AppleWebKit/537.36 (KHTML, like Gecko) Chrome/93.0.4577.63 Safari/537.36",2327,1179,2560,1440,,,,,,,,7,1.8553,0.41124379,-0.409785369,1,0,0,next_trial_button,0,70,70,1,1,beach,invisiblesun,yesclouds,0,"666.6666666666666,500",
,,,,,,,gr,gr,gr,m,30,,2021-09-01_17h15.30.866,online_experiment,2021.1.4,Win32,145.3699666,IwAR3YQMe3eH5ID8Ss00K-rA0MPxvNOoLO-Gi467-bQOjnWs1LLD15irORwx0,FALSE,,"Mozilla/5.0 (Windows NT 10.0; Win64; x64) AppleWebKit/537.36 (KHTML, like Gecko) Chrome/93.0.4577.63 Safari/537.36",2327,1179,2560,1440,,,,,,,,9,1.64,0.468192102,-0.418813689,1,0,0,next_trial_button,0,71,71,63,1,landscape,visiblesun,yesclouds,7,"331.94444444444446,500",
,,,,,,,gr,gr,gr,m,30,,2021-09-01_17h15.30.866,online_experiment,2021.1.4,Win32,145.3699666,IwAR3YQMe3eH5ID8Ss00K-rA0MPxvNOoLO-Gi467-bQOjnWs1LLD15irORwx0,FALSE,,"Mozilla/5.0 (Windows NT 10.0; Win64; x64) AppleWebKit/537.36 (KHTML, like Gecko) Chrome/93.0.4577.63 Safari/537.36",2327,1179,2560,1440,,,,,,,,5,2.3425,0.36401829,-0.429925656,1,0,0,next_trial_button,0,72,72,4,1,landscape,invisiblesun,noclouds,0,"1276.9171185127807,500",
,,,,,,,gr,gr,gr,m,30,,2021-09-01_17h15.30.866,online_experiment,2021.1.4,Win32,145.3699666,IwAR3YQMe3eH5ID8Ss00K-rA0MPxvNOoLO-Gi467-bQOjnWs1LLD15irORwx0,FALSE,,"Mozilla/5.0 (Windows NT 10.0; Win64; x64) AppleWebKit/537.36 (KHTML, like Gecko) Chrome/93.0.4577.63 Safari/537.36",2327,1179,2560,1440,,,,,,,,7,1.3917,0.509861746,-0.395895431,1,0,0,next_trial_button,0,73,73,39,1,landscape,visiblesun,yesclouds,4,"749.7656982193065,500",
,,,,,,,gr,gr,gr,m,30,,2021-09-01_17h15.30.866,online_experiment,2021.1.4,Win32,145.3699666,IwAR3YQMe3eH5ID8Ss00K-rA0MPxvNOoLO-Gi467-bQOjnWs1LLD15irORwx0,FALSE,,"Mozilla/5.0 (Windows NT 10.0; Win64; x64) AppleWebKit/537.36 (KHTML, like Gecko) Chrome/93.0.4577.63 Safari/537.36",2327,1179,2560,1440,,,,,,,,6,1.6505,0.368185246,-0.418119281,1,0,0,next_trial_button,0,74,74,13,1,landscape,invisiblesun,yesclouds,1,"783.1192660550458,500",
,,,,,,,gr,gr,gr,m,30,,2021-09-01_17h15.30.866,online_experiment,2021.1.4,Win32,145.3699666,IwAR3YQMe3eH5ID8Ss00K-rA0MPxvNOoLO-Gi467-bQOjnWs1LLD15irORwx0,FALSE,,"Mozilla/5.0 (Windows NT 10.0; Win64; x64) AppleWebKit/537.36 (KHTML, like Gecko) Chrome/93.0.4577.63 Safari/537.36",2327,1179,2560,1440,,,,,,,,6,3.8937,0.366101683,-0.418813689,1,0,0,next_trial_button,0,75,75,7,1,landscape,visiblesun,yesclouds,0,"743.421052631579,500",
,,,,,,,gr,gr,gr,m,30,,2021-09-01_17h15.30.866,online_experiment,2021.1.4,Win32,145.3699666,IwAR3YQMe3eH5ID8Ss00K-rA0MPxvNOoLO-Gi467-bQOjnWs1LLD15irORwx0,FALSE,,"Mozilla/5.0 (Windows NT 10.0; Win64; x64) AppleWebKit/537.36 (KHTML, like Gecko) Chrome/93.0.4577.63 Safari/537.36",2327,1179,2560,1440,,,,,,,,3,1.4306,0.356378871,-0.423675137,1,0,0,next_trial_button,0,76,76,5,1,landscape,invisiblesun,yesclouds,0,"750.4690431519699,500",
,,,,,,,gr,gr,gr,m,30,,2021-09-01_17h15.30.866,online_experiment,2021.1.4,Win32,145.3699666,IwAR3YQMe3eH5ID8Ss00K-rA0MPxvNOoLO-Gi467-bQOjnWs1LLD15irORwx0,FALSE,,"Mozilla/5.0 (Windows NT 10.0; Win64; x64) AppleWebKit/537.36 (KHTML, like Gecko) Chrome/93.0.4577.63 Safari/537.36",2327,1179,2560,1440,,,,,,,,6,1.5354,0.328599165,-0.416035718,1,0,0,next_trial_button,0,77,77,71,1,landscape,visiblesun,yesclouds,8,"666.6666666666666,500",
,,,,,,,gr,gr,gr,m,30,,2021-09-01_17h15.30.866,online_experiment,2021.1.4,Win32,145.3699666,IwAR3YQMe3eH5ID8Ss00K-rA0MPxvNOoLO-Gi467-bQOjnWs1LLD15irORwx0,FALSE,,"Mozilla/5.0 (Windows NT 10.0; Win64; x64) AppleWebKit/537.36 (KHTML, like Gecko) Chrome/93.0.4577.63 Safari/537.36",2327,1179,2560,1440,,,,,,,,8,1.3615,0.359156841,-0.413952325,1,0,0,next_trial_button,0,78,78,27,1,beach,visiblesun,yesclouds,3,"752.8089887640449,500",
,,,,,,,gr,gr,gr,m,30,,2021-09-01_17h15.30.866,online_experiment,2021.1.4,Win32,145.3699666,IwAR3YQMe3eH5ID8Ss00K-rA0MPxvNOoLO-Gi467-bQOjnWs1LLD15irORwx0,FALSE,,"Mozilla/5.0 (Windows NT 10.0; Win64; x64) AppleWebKit/537.36 (KHTML, like Gecko) Chrome/93.0.4577.63 Safari/537.36",2327,1179,2560,1440,,,,,,,,5,1.7392,0.360545827,-0.429231163,1,0,0,next_trial_button,0,79,79,8,1,beach,invisiblesun,noclouds,1,"1215.1898734177216,500",
,,,,,,,gr,gr,gr,m,30,,2021-09-01_17h15.30.866,online_experiment,2021.1.4,Win32,145.3699666,IwAR3YQMe3eH5ID8Ss00K-rA0MPxvNOoLO-Gi467-bQOjnWs1LLD15irORwx0,FALSE,,"Mozilla/5.0 (Windows NT 10.0; Win64; x64) AppleWebKit/537.36 (KHTML, like Gecko) Chrome/93.0.4577.63 Safari/537.36",2327,1179,2560,1440,,,,,,,,,,,,,,,,,,,,,,,,,"1215.1898734177216,500",367.7245
