language_mouse.x,language_mouse.y,language_mouse.leftButton,language_mouse.midButton,language_mouse.rightButton,language_mouse.time,language_mouse.clicked_name,nationality,mother_tongue,homeland,gender,age,email,date,expName,psychopyVersion,OS,frameRate,cancel_experiment,cancel_reasons,client_agent_information,windowWidth,windowHeight,xRes,yRes,start_exp_mouse.x,start_exp_mouse.y,start_exp_mouse.leftButton,start_exp_mouse.midButton,start_exp_mouse.rightButton,start_exp_mouse.time,start_exp_mouse.clicked_name,rating_slider.response,rating_slider.rt,next_trial_mouse.x,next_trial_mouse.y,next_trial_mouse.leftButton,next_trial_mouse.midButton,next_trial_mouse.rightButton,next_trial_mouse.clicked_name,trials.thisRepN,trials.thisTrialN,trials.thisN,trials.thisIndex,trials.ran,environment,sunVisibility,cloudVisibility,imageId,imgSize,globalClockTime
-0.292899306,-0.215989583,1,0,0,1.8672,de_flag,de,de,de,f,24,,2021-08-05_17h00.13.085,online_experiment,2021.1.4,MacIntel,60.0024001,FALSE,,"Mozilla/5.0 (Macintosh; Intel Mac OS X 10_15_7) AppleWebKit/537.36 (KHTML, like Gecko) Chrome/91.0.4472.114 Safari/537.36",1440,690,1440,900,,,,,,,,,,,,,,,,,,,,,,,,,,
,,,,,,,de,de,de,f,24,,2021-08-05_17h00.13.085,online_experiment,2021.1.4,MacIntel,60.0024001,FALSE,,"Mozilla/5.0 (Macintosh; Intel Mac OS X 10_15_7) AppleWebKit/537.36 (KHTML, like Gecko) Chrome/91.0.4472.114 Safari/537.36",1440,690,1440,900,-0.035707465,-0.427699653,1,0,0,10.6197,cont_gr,7,3.5231,0.4284375,-0.442491319,1,0,0,next_trial_button,0,0,0,45,1,landscape,invisiblesun,yesclouds,5,"749.6251874062968,500",
,,,,,,,de,de,de,f,24,,2021-08-05_17h00.13.085,online_experiment,2021.1.4,MacIntel,60.0024001,FALSE,,"Mozilla/5.0 (Macintosh; Intel Mac OS X 10_15_7) AppleWebKit/537.36 (KHTML, like Gecko) Chrome/91.0.4472.114 Safari/537.36",1440,690,1440,900,,,,,,,,2,2.4249,0.337296007,-0.4409375,1,0,0,next_trial_button,0,1,1,76,1,landscape,invisiblesun,noclouds,9,"1056.6037735849056,500",
,,,,,,,de,de,de,f,24,,2021-08-05_17h00.13.085,online_experiment,2021.1.4,MacIntel,60.0024001,FALSE,,"Mozilla/5.0 (Macintosh; Intel Mac OS X 10_15_7) AppleWebKit/537.36 (KHTML, like Gecko) Chrome/91.0.4472.114 Safari/537.36",1440,690,1440,900,,,,,,,,4,4.4645,0.465520833,-0.415690104,1,0,0,next_trial_button,0,2,2,47,1,landscape,visiblesun,yesclouds,5,"666.6666666666666,500",
,,,,,,,de,de,de,f,24,,2021-08-05_17h00.13.085,online_experiment,2021.1.4,MacIntel,60.0024001,FALSE,,"Mozilla/5.0 (Macintosh; Intel Mac OS X 10_15_7) AppleWebKit/537.36 (KHTML, like Gecko) Chrome/91.0.4472.114 Safari/537.36",1440,690,1440,900,,,,,,,,5,3.9776,0.333081597,-0.428146701,1,0,0,next_trial_button,0,3,3,51,1,beach,visiblesun,yesclouds,6,"657.1279916753382,500",
,,,,,,,de,de,de,f,24,,2021-08-05_17h00.13.085,online_experiment,2021.1.4,MacIntel,60.0024001,FALSE,,"Mozilla/5.0 (Macintosh; Intel Mac OS X 10_15_7) AppleWebKit/537.36 (KHTML, like Gecko) Chrome/91.0.4472.114 Safari/537.36",1440,690,1440,900,,,,,,,,8,2.0789,0.357547743,-0.416957465,1,0,0,next_trial_button,0,4,4,1,1,beach,invisiblesun,yesclouds,0,"666.6666666666666,500",
,,,,,,,de,de,de,f,24,,2021-08-05_17h00.13.085,online_experiment,2021.1.4,MacIntel,60.0024001,FALSE,,"Mozilla/5.0 (Macintosh; Intel Mac OS X 10_15_7) AppleWebKit/537.36 (KHTML, like Gecko) Chrome/91.0.4472.114 Safari/537.36",1440,690,1440,900,,,,,,,,4,2.2627,0.336901042,-0.406610243,1,0,0,next_trial_button,0,5,5,67,1,beach,visiblesun,yesclouds,8,"748.1481481481482,500",
,,,,,,,de,de,de,f,24,,2021-08-05_17h00.13.085,online_experiment,2021.1.4,MacIntel,60.0024001,FALSE,,"Mozilla/5.0 (Macintosh; Intel Mac OS X 10_15_7) AppleWebKit/537.36 (KHTML, like Gecko) Chrome/91.0.4472.114 Safari/537.36",1440,690,1440,900,,,,,,,,6,2.3145,0.435694444,-0.451966146,1,0,0,next_trial_button,0,6,6,59,1,beach,visiblesun,yesclouds,7,"888.9689978370584,500",
,,,,,,,de,de,de,f,24,,2021-08-05_17h00.13.085,online_experiment,2021.1.4,MacIntel,60.0024001,FALSE,,"Mozilla/5.0 (Macintosh; Intel Mac OS X 10_15_7) AppleWebKit/537.36 (KHTML, like Gecko) Chrome/91.0.4472.114 Safari/537.36",1440,690,1440,900,,,,,,,,3,3.9681,0.357721354,-0.395399306,1,0,0,next_trial_button,0,7,7,19,1,beach,visiblesun,yesclouds,2,"770.1393095093882,500",
,,,,,,,de,de,de,f,24,,2021-08-05_17h00.13.085,online_experiment,2021.1.4,MacIntel,60.0024001,FALSE,,"Mozilla/5.0 (Macintosh; Intel Mac OS X 10_15_7) AppleWebKit/537.36 (KHTML, like Gecko) Chrome/91.0.4472.114 Safari/537.36",1440,690,1440,900,,,,,,,,2,1.9949,0.408142361,-0.407873264,1,0,0,next_trial_button,0,8,8,23,1,landscape,visiblesun,yesclouds,2,"767.97829036635,500",
,,,,,,,de,de,de,f,24,,2021-08-05_17h00.13.085,online_experiment,2021.1.4,MacIntel,60.0024001,FALSE,,"Mozilla/5.0 (Macintosh; Intel Mac OS X 10_15_7) AppleWebKit/537.36 (KHTML, like Gecko) Chrome/91.0.4472.114 Safari/537.36",1440,690,1440,900,,,,,,,,4,1.9636,0.399809028,-0.431766493,1,0,0,next_trial_button,0,9,9,29,1,landscape,invisiblesun,yesclouds,3,"749.8660953401178,500",
,,,,,,,de,de,de,f,24,,2021-08-05_17h00.13.085,online_experiment,2021.1.4,MacIntel,60.0024001,FALSE,,"Mozilla/5.0 (Macintosh; Intel Mac OS X 10_15_7) AppleWebKit/537.36 (KHTML, like Gecko) Chrome/91.0.4472.114 Safari/537.36",1440,690,1440,900,,,,,,,,6,2.6808,0.394253472,-0.412717014,1,0,0,next_trial_button,0,10,10,58,1,beach,visiblesun,noclouds,7,"1028.5714285714284,500",
,,,,,,,de,de,de,f,24,,2021-08-05_17h00.13.085,online_experiment,2021.1.4,MacIntel,60.0024001,FALSE,,"Mozilla/5.0 (Macintosh; Intel Mac OS X 10_15_7) AppleWebKit/537.36 (KHTML, like Gecko) Chrome/91.0.4472.114 Safari/537.36",1440,690,1440,900,,,,,,,,1,2.0807,0.319583333,-0.404188368,1,0,0,next_trial_button,0,11,11,32,1,beach,invisiblesun,noclouds,4,"750,500",
,,,,,,,de,de,de,f,24,,2021-08-05_17h00.13.085,online_experiment,2021.1.4,MacIntel,60.0024001,FALSE,,"Mozilla/5.0 (Macintosh; Intel Mac OS X 10_15_7) AppleWebKit/537.36 (KHTML, like Gecko) Chrome/91.0.4472.114 Safari/537.36",1440,690,1440,900,,,,,,,,6,2.7791,0.342513021,-0.410746528,1,0,0,next_trial_button,0,12,12,37,1,landscape,invisiblesun,yesclouds,4,"669.4214876033058,500",
,,,,,,,de,de,de,f,24,,2021-08-05_17h00.13.085,online_experiment,2021.1.4,MacIntel,60.0024001,FALSE,,"Mozilla/5.0 (Macintosh; Intel Mac OS X 10_15_7) AppleWebKit/537.36 (KHTML, like Gecko) Chrome/91.0.4472.114 Safari/537.36",1440,690,1440,900,,,,,,,,2,2.0303,0.369353299,-0.409153646,1,0,0,next_trial_button,0,13,13,71,1,landscape,visiblesun,yesclouds,8,"666.6666666666666,500",
,,,,,,,de,de,de,f,24,,2021-08-05_17h00.13.085,online_experiment,2021.1.4,MacIntel,60.0024001,FALSE,,"Mozilla/5.0 (Macintosh; Intel Mac OS X 10_15_7) AppleWebKit/537.36 (KHTML, like Gecko) Chrome/91.0.4472.114 Safari/537.36",1440,690,1440,900,,,,,,,,3,2.8621,0.347578125,-0.410598958,1,0,0,next_trial_button,0,14,14,72,1,beach,invisiblesun,noclouds,9,"888.8888888888888,500",
,,,,,,,de,de,de,f,24,,2021-08-05_17h00.13.085,online_experiment,2021.1.4,MacIntel,60.0024001,FALSE,,"Mozilla/5.0 (Macintosh; Intel Mac OS X 10_15_7) AppleWebKit/537.36 (KHTML, like Gecko) Chrome/91.0.4472.114 Safari/537.36",1440,690,1440,900,,,,,,,,2,3.0121,0.371631944,-0.429622396,1,0,0,next_trial_button,0,15,15,13,1,landscape,invisiblesun,yesclouds,1,"783.1192660550458,500",
,,,,,,,de,de,de,f,24,,2021-08-05_17h00.13.085,online_experiment,2021.1.4,MacIntel,60.0024001,FALSE,,"Mozilla/5.0 (Macintosh; Intel Mac OS X 10_15_7) AppleWebKit/537.36 (KHTML, like Gecko) Chrome/91.0.4472.114 Safari/537.36",1440,690,1440,900,,,,,,,,5,2.1429,0.328476563,-0.413736979,1,0,0,next_trial_button,0,16,16,34,1,beach,visiblesun,noclouds,4,"749.6251874062968,500",
,,,,,,,de,de,de,f,24,,2021-08-05_17h00.13.085,online_experiment,2021.1.4,MacIntel,60.0024001,FALSE,,"Mozilla/5.0 (Macintosh; Intel Mac OS X 10_15_7) AppleWebKit/537.36 (KHTML, like Gecko) Chrome/91.0.4472.114 Safari/537.36",1440,690,1440,900,,,,,,,,2,1.7958,0.361367188,-0.416653646,1,0,0,next_trial_button,0,17,17,5,1,landscape,invisiblesun,yesclouds,0,"750.4690431519699,500",
,,,,,,,de,de,de,f,24,,2021-08-05_17h00.13.085,online_experiment,2021.1.4,MacIntel,60.0024001,FALSE,,"Mozilla/5.0 (Macintosh; Intel Mac OS X 10_15_7) AppleWebKit/537.36 (KHTML, like Gecko) Chrome/91.0.4472.114 Safari/537.36",1440,690,1440,900,,,,,,,,1,3.4972,0.328810764,-0.416592882,1,0,0,next_trial_button,0,18,18,77,1,landscape,invisiblesun,yesclouds,9,"888.8888888888888,500",
,,,,,,,de,de,de,f,24,,2021-08-05_17h00.13.085,online_experiment,2021.1.4,MacIntel,60.0024001,FALSE,,"Mozilla/5.0 (Macintosh; Intel Mac OS X 10_15_7) AppleWebKit/537.36 (KHTML, like Gecko) Chrome/91.0.4472.114 Safari/537.36",1440,690,1440,900,,,,,,,,3,2.0108,0.322608507,-0.407491319,1,0,0,next_trial_button,0,19,19,39,1,landscape,visiblesun,yesclouds,4,"749.7656982193065,500",
,,,,,,,de,de,de,f,24,,2021-08-05_17h00.13.085,online_experiment,2021.1.4,MacIntel,60.0024001,FALSE,,"Mozilla/5.0 (Macintosh; Intel Mac OS X 10_15_7) AppleWebKit/537.36 (KHTML, like Gecko) Chrome/91.0.4472.114 Safari/537.36",1440,690,1440,900,,,,,,,,4,1.9591,0.348315972,-0.409244792,1,0,0,next_trial_button,0,20,20,75,1,beach,visiblesun,yesclouds,9,"1029.6010296010297,500",
,,,,,,,de,de,de,f,24,,2021-08-05_17h00.13.085,online_experiment,2021.1.4,MacIntel,60.0024001,FALSE,,"Mozilla/5.0 (Macintosh; Intel Mac OS X 10_15_7) AppleWebKit/537.36 (KHTML, like Gecko) Chrome/91.0.4472.114 Safari/537.36",1440,690,1440,900,,,,,,,,2,1.8658,0.433624132,-0.41094184,1,0,0,next_trial_button,0,21,21,8,1,beach,invisiblesun,noclouds,1,"1215.1898734177216,500",
,,,,,,,de,de,de,f,24,,2021-08-05_17h00.13.085,online_experiment,2021.1.4,MacIntel,60.0024001,FALSE,,"Mozilla/5.0 (Macintosh; Intel Mac OS X 10_15_7) AppleWebKit/537.36 (KHTML, like Gecko) Chrome/91.0.4472.114 Safari/537.36",1440,690,1440,900,,,,,,,,1,1.8285,0.3146875,-0.400021701,1,0,0,next_trial_button,0,22,22,42,1,beach,visiblesun,noclouds,5,"834.4594594594595,500",
,,,,,,,de,de,de,f,24,,2021-08-05_17h00.13.085,online_experiment,2021.1.4,MacIntel,60.0024001,FALSE,,"Mozilla/5.0 (Macintosh; Intel Mac OS X 10_15_7) AppleWebKit/537.36 (KHTML, like Gecko) Chrome/91.0.4472.114 Safari/537.36",1440,690,1440,900,,,,,,,,2,3.0836,0.480416667,-0.399288194,1,0,0,next_trial_button,0,23,23,63,1,landscape,visiblesun,yesclouds,7,"331.94444444444446,500",
,,,,,,,de,de,de,f,24,,2021-08-05_17h00.13.085,online_experiment,2021.1.4,MacIntel,60.0024001,FALSE,,"Mozilla/5.0 (Macintosh; Intel Mac OS X 10_15_7) AppleWebKit/537.36 (KHTML, like Gecko) Chrome/91.0.4472.114 Safari/537.36",1440,690,1440,900,,,,,,,,1,1.7302,0.334240451,-0.432955729,1,0,0,next_trial_button,0,24,24,36,1,landscape,invisiblesun,noclouds,4,"281.25,500",
,,,,,,,de,de,de,f,24,,2021-08-05_17h00.13.085,online_experiment,2021.1.4,MacIntel,60.0024001,FALSE,,"Mozilla/5.0 (Macintosh; Intel Mac OS X 10_15_7) AppleWebKit/537.36 (KHTML, like Gecko) Chrome/91.0.4472.114 Safari/537.36",1440,690,1440,900,,,,,,,,3,1.9143,0.423572049,-0.410212674,1,0,0,next_trial_button,0,25,25,18,1,beach,visiblesun,noclouds,2,"666.6666666666666,500",
,,,,,,,de,de,de,f,24,,2021-08-05_17h00.13.085,online_experiment,2021.1.4,MacIntel,60.0024001,FALSE,,"Mozilla/5.0 (Macintosh; Intel Mac OS X 10_15_7) AppleWebKit/537.36 (KHTML, like Gecko) Chrome/91.0.4472.114 Safari/537.36",1440,690,1440,900,,,,,,,,2,2.3126,0.414895833,-0.416171875,1,0,0,next_trial_button,0,26,26,35,1,beach,visiblesun,yesclouds,4,"750,500",
,,,,,,,de,de,de,f,24,,2021-08-05_17h00.13.085,online_experiment,2021.1.4,MacIntel,60.0024001,FALSE,,"Mozilla/5.0 (Macintosh; Intel Mac OS X 10_15_7) AppleWebKit/537.36 (KHTML, like Gecko) Chrome/91.0.4472.114 Safari/537.36",1440,690,1440,900,,,,,,,,2,2.3294,0.464006076,-0.386037326,1,0,0,next_trial_button,0,27,27,22,1,landscape,visiblesun,noclouds,2,"749.3333333333333,500",
,,,,,,,de,de,de,f,24,,2021-08-05_17h00.13.085,online_experiment,2021.1.4,MacIntel,60.0024001,FALSE,,"Mozilla/5.0 (Macintosh; Intel Mac OS X 10_15_7) AppleWebKit/537.36 (KHTML, like Gecko) Chrome/91.0.4472.114 Safari/537.36",1440,690,1440,900,,,,,,,,1,1.5988,0.311458333,-0.408802083,1,0,0,next_trial_button,0,28,28,79,1,landscape,visiblesun,yesclouds,9,"1028.5714285714284,500",
,,,,,,,de,de,de,f,24,,2021-08-05_17h00.13.085,online_experiment,2021.1.4,MacIntel,60.0024001,FALSE,,"Mozilla/5.0 (Macintosh; Intel Mac OS X 10_15_7) AppleWebKit/537.36 (KHTML, like Gecko) Chrome/91.0.4472.114 Safari/537.36",1440,690,1440,900,,,,,,,,5,2.8144,0.337465278,-0.420208333,1,0,0,next_trial_button,0,29,29,65,1,beach,invisiblesun,yesclouds,8,"750,500",
,,,,,,,de,de,de,f,24,,2021-08-05_17h00.13.085,online_experiment,2021.1.4,MacIntel,60.0024001,FALSE,,"Mozilla/5.0 (Macintosh; Intel Mac OS X 10_15_7) AppleWebKit/537.36 (KHTML, like Gecko) Chrome/91.0.4472.114 Safari/537.36",1440,690,1440,900,,,,,,,,3,2.6624,0.347921007,-0.427322049,1,0,0,next_trial_button,0,30,30,26,1,beach,visiblesun,noclouds,3,"888.8888888888888,500",
,,,,,,,de,de,de,f,24,,2021-08-05_17h00.13.085,online_experiment,2021.1.4,MacIntel,60.0024001,FALSE,,"Mozilla/5.0 (Macintosh; Intel Mac OS X 10_15_7) AppleWebKit/537.36 (KHTML, like Gecko) Chrome/91.0.4472.114 Safari/537.36",1440,690,1440,900,,,,,,,,7,2.0818,0.36843316,-0.42578559,1,0,0,next_trial_button,0,31,31,16,1,beach,invisiblesun,noclouds,2,"752.8089887640449,500",
,,,,,,,de,de,de,f,24,,2021-08-05_17h00.13.085,online_experiment,2021.1.4,MacIntel,60.0024001,FALSE,,"Mozilla/5.0 (Macintosh; Intel Mac OS X 10_15_7) AppleWebKit/537.36 (KHTML, like Gecko) Chrome/91.0.4472.114 Safari/537.36",1440,690,1440,900,,,,,,,,5,3.446,0.357144097,-0.4365625,1,0,0,next_trial_button,0,32,32,9,1,beach,invisiblesun,yesclouds,1,"750,500",
,,,,,,,de,de,de,f,24,,2021-08-05_17h00.13.085,online_experiment,2021.1.4,MacIntel,60.0024001,FALSE,,"Mozilla/5.0 (Macintosh; Intel Mac OS X 10_15_7) AppleWebKit/537.36 (KHTML, like Gecko) Chrome/91.0.4472.114 Safari/537.36",1440,690,1440,900,,,,,,,,5,2.5608,0.318220486,-0.41546875,1,0,0,next_trial_button,0,33,33,21,1,landscape,invisiblesun,yesclouds,2,"750,500",
,,,,,,,de,de,de,f,24,,2021-08-05_17h00.13.085,online_experiment,2021.1.4,MacIntel,60.0024001,FALSE,,"Mozilla/5.0 (Macintosh; Intel Mac OS X 10_15_7) AppleWebKit/537.36 (KHTML, like Gecko) Chrome/91.0.4472.114 Safari/537.36",1440,690,1440,900,,,,,,,,2,1.7941,0.311840278,-0.395581597,1,0,0,next_trial_button,0,34,34,54,1,landscape,visiblesun,noclouds,6,"695.0043821209465,500",
,,,,,,,de,de,de,f,24,,2021-08-05_17h00.13.085,online_experiment,2021.1.4,MacIntel,60.0024001,FALSE,,"Mozilla/5.0 (Macintosh; Intel Mac OS X 10_15_7) AppleWebKit/537.36 (KHTML, like Gecko) Chrome/91.0.4472.114 Safari/537.36",1440,690,1440,900,,,,,,,,4,2.6413,0.461992187,-0.426206597,1,0,0,next_trial_button,0,35,35,43,1,beach,visiblesun,yesclouds,5,"750,500",
,,,,,,,de,de,de,f,24,,2021-08-05_17h00.13.085,online_experiment,2021.1.4,MacIntel,60.0024001,FALSE,,"Mozilla/5.0 (Macintosh; Intel Mac OS X 10_15_7) AppleWebKit/537.36 (KHTML, like Gecko) Chrome/91.0.4472.114 Safari/537.36",1440,690,1440,900,,,,,,,,3,1.9923,0.418823785,-0.427617187,1,0,0,next_trial_button,0,36,36,3,1,beach,visiblesun,yesclouds,0,"1152.5122276567363,500",
,,,,,,,de,de,de,f,24,,2021-08-05_17h00.13.085,online_experiment,2021.1.4,MacIntel,60.0024001,FALSE,,"Mozilla/5.0 (Macintosh; Intel Mac OS X 10_15_7) AppleWebKit/537.36 (KHTML, like Gecko) Chrome/91.0.4472.114 Safari/537.36",1440,690,1440,900,,,,,,,,5,4.4416,0.352903646,-0.395065104,1,0,0,next_trial_button,0,37,37,20,1,landscape,invisiblesun,noclouds,2,"755.192878338279,500",
,,,,,,,de,de,de,f,24,,2021-08-05_17h00.13.085,online_experiment,2021.1.4,MacIntel,60.0024001,FALSE,,"Mozilla/5.0 (Macintosh; Intel Mac OS X 10_15_7) AppleWebKit/537.36 (KHTML, like Gecko) Chrome/91.0.4472.114 Safari/537.36",1440,690,1440,900,,,,,,,,6,3.3643,0.331046007,-0.422994792,1,0,0,next_trial_button,0,38,38,46,1,landscape,visiblesun,noclouds,5,"750,500",
,,,,,,,de,de,de,f,24,,2021-08-05_17h00.13.085,online_experiment,2021.1.4,MacIntel,60.0024001,FALSE,,"Mozilla/5.0 (Macintosh; Intel Mac OS X 10_15_7) AppleWebKit/537.36 (KHTML, like Gecko) Chrome/91.0.4472.114 Safari/537.36",1440,690,1440,900,,,,,,,,5,2.1606,0.337517361,-0.42546441,1,0,0,next_trial_button,0,39,39,61,1,landscape,invisiblesun,yesclouds,7,"500,500",
,,,,,,,de,de,de,f,24,,2021-08-05_17h00.13.085,online_experiment,2021.1.4,MacIntel,60.0024001,FALSE,,"Mozilla/5.0 (Macintosh; Intel Mac OS X 10_15_7) AppleWebKit/537.36 (KHTML, like Gecko) Chrome/91.0.4472.114 Safari/537.36",1440,690,1440,900,,,,,,,,1,1.96,0.373307292,-0.412513021,1,0,0,next_trial_button,0,40,40,60,1,landscape,invisiblesun,noclouds,7,"666.7268134247564,500",
,,,,,,,de,de,de,f,24,,2021-08-05_17h00.13.085,online_experiment,2021.1.4,MacIntel,60.0024001,FALSE,,"Mozilla/5.0 (Macintosh; Intel Mac OS X 10_15_7) AppleWebKit/537.36 (KHTML, like Gecko) Chrome/91.0.4472.114 Safari/537.36",1440,690,1440,900,,,,,,,,2,2.7019,0.337699653,-0.422821181,1,0,0,next_trial_button,0,41,41,64,1,beach,invisiblesun,noclouds,8,"1028.5714285714284,500",
,,,,,,,de,de,de,f,24,,2021-08-05_17h00.13.085,online_experiment,2021.1.4,MacIntel,60.0024001,FALSE,,"Mozilla/5.0 (Macintosh; Intel Mac OS X 10_15_7) AppleWebKit/537.36 (KHTML, like Gecko) Chrome/91.0.4472.114 Safari/537.36",1440,690,1440,900,,,,,,,,5,2.6281,0.391861979,-0.410203993,1,0,0,next_trial_button,0,42,42,11,1,beach,visiblesun,yesclouds,1,"989.8132427843803,500",
,,,,,,,de,de,de,f,24,,2021-08-05_17h00.13.085,online_experiment,2021.1.4,MacIntel,60.0024001,FALSE,,"Mozilla/5.0 (Macintosh; Intel Mac OS X 10_15_7) AppleWebKit/537.36 (KHTML, like Gecko) Chrome/91.0.4472.114 Safari/537.36",1440,690,1440,900,,,,,,,,3,3.1632,0.350342882,-0.454283854,1,0,0,next_trial_button,0,43,43,48,1,beach,invisiblesun,noclouds,6,"1028.5714285714284,500",
,,,,,,,de,de,de,f,24,,2021-08-05_17h00.13.085,online_experiment,2021.1.4,MacIntel,60.0024001,FALSE,,"Mozilla/5.0 (Macintosh; Intel Mac OS X 10_15_7) AppleWebKit/537.36 (KHTML, like Gecko) Chrome/91.0.4472.114 Safari/537.36",1440,690,1440,900,,,,,,,,4,2.0115,0.359943576,-0.410928819,1,0,0,next_trial_button,0,44,44,66,1,beach,visiblesun,noclouds,8,"1028.5714285714284,500",
,,,,,,,de,de,de,f,24,,2021-08-05_17h00.13.085,online_experiment,2021.1.4,MacIntel,60.0024001,FALSE,,"Mozilla/5.0 (Macintosh; Intel Mac OS X 10_15_7) AppleWebKit/537.36 (KHTML, like Gecko) Chrome/91.0.4472.114 Safari/537.36",1440,690,1440,900,,,,,,,,1,1.8433,0.31797309,-0.42469184,1,0,0,next_trial_button,0,45,45,68,1,landscape,invisiblesun,noclouds,8,"666.6666666666666,500",
,,,,,,,de,de,de,f,24,,2021-08-05_17h00.13.085,online_experiment,2021.1.4,MacIntel,60.0024001,FALSE,,"Mozilla/5.0 (Macintosh; Intel Mac OS X 10_15_7) AppleWebKit/537.36 (KHTML, like Gecko) Chrome/91.0.4472.114 Safari/537.36",1440,690,1440,900,,,,,,,,3,2.7308,0.313376736,-0.407005208,1,0,0,next_trial_button,0,46,46,2,1,beach,visiblesun,noclouds,0,"375,500",
,,,,,,,de,de,de,f,24,,2021-08-05_17h00.13.085,online_experiment,2021.1.4,MacIntel,60.0024001,FALSE,,"Mozilla/5.0 (Macintosh; Intel Mac OS X 10_15_7) AppleWebKit/537.36 (KHTML, like Gecko) Chrome/91.0.4472.114 Safari/537.36",1440,690,1440,900,,,,,,,,1,2.5801,0.448472222,-0.435256076,1,0,0,next_trial_button,0,47,47,44,1,landscape,invisiblesun,noclouds,5,"666.6666666666666,500",
,,,,,,,de,de,de,f,24,,2021-08-05_17h00.13.085,online_experiment,2021.1.4,MacIntel,60.0024001,FALSE,,"Mozilla/5.0 (Macintosh; Intel Mac OS X 10_15_7) AppleWebKit/537.36 (KHTML, like Gecko) Chrome/91.0.4472.114 Safari/537.36",1440,690,1440,900,,,,,,,,1,2.7653,0.452690972,-0.400694444,1,0,0,next_trial_button,0,48,48,70,1,landscape,visiblesun,noclouds,8,"666.6666666666666,500",
,,,,,,,de,de,de,f,24,,2021-08-05_17h00.13.085,online_experiment,2021.1.4,MacIntel,60.0024001,FALSE,,"Mozilla/5.0 (Macintosh; Intel Mac OS X 10_15_7) AppleWebKit/537.36 (KHTML, like Gecko) Chrome/91.0.4472.114 Safari/537.36",1440,690,1440,900,,,,,,,,2,3.2269,0.330737847,-0.427907986,1,0,0,next_trial_button,0,49,49,56,1,beach,invisiblesun,noclouds,7,"1028.5714285714284,500",
,,,,,,,de,de,de,f,24,,2021-08-05_17h00.13.085,online_experiment,2021.1.4,MacIntel,60.0024001,FALSE,,"Mozilla/5.0 (Macintosh; Intel Mac OS X 10_15_7) AppleWebKit/537.36 (KHTML, like Gecko) Chrome/91.0.4472.114 Safari/537.36",1440,690,1440,900,,,,,,,,3,3.4273,0.412105035,-0.411653646,1,0,0,next_trial_button,0,50,50,25,1,beach,invisiblesun,yesclouds,3,"750.4690431519699,500",
,,,,,,,de,de,de,f,24,,2021-08-05_17h00.13.085,online_experiment,2021.1.4,MacIntel,60.0024001,FALSE,,"Mozilla/5.0 (Macintosh; Intel Mac OS X 10_15_7) AppleWebKit/537.36 (KHTML, like Gecko) Chrome/91.0.4472.114 Safari/537.36",1440,690,1440,900,,,,,,,,3,1.6932,0.345264757,-0.401757812,1,0,0,next_trial_button,0,51,51,7,1,landscape,visiblesun,yesclouds,0,"743.421052631579,500",
,,,,,,,de,de,de,f,24,,2021-08-05_17h00.13.085,online_experiment,2021.1.4,MacIntel,60.0024001,FALSE,,"Mozilla/5.0 (Macintosh; Intel Mac OS X 10_15_7) AppleWebKit/537.36 (KHTML, like Gecko) Chrome/91.0.4472.114 Safari/537.36",1440,690,1440,900,,,,,,,,2,1.8258,0.337773437,-0.383146701,1,0,0,next_trial_button,0,52,52,62,1,landscape,visiblesun,noclouds,7,"417.42389822807814,500",
,,,,,,,de,de,de,f,24,,2021-08-05_17h00.13.085,online_experiment,2021.1.4,MacIntel,60.0024001,FALSE,,"Mozilla/5.0 (Macintosh; Intel Mac OS X 10_15_7) AppleWebKit/537.36 (KHTML, like Gecko) Chrome/91.0.4472.114 Safari/537.36",1440,690,1440,900,,,,,,,,6,2.1784,0.4109375,-0.411987847,1,0,0,next_trial_button,0,53,53,49,1,beach,invisiblesun,yesclouds,6,"858.4474885844749,500",
,,,,,,,de,de,de,f,24,,2021-08-05_17h00.13.085,online_experiment,2021.1.4,MacIntel,60.0024001,FALSE,,"Mozilla/5.0 (Macintosh; Intel Mac OS X 10_15_7) AppleWebKit/537.36 (KHTML, like Gecko) Chrome/91.0.4472.114 Safari/537.36",1440,690,1440,900,,,,,,,,3,2.683,0.352282986,-0.415564236,1,0,0,next_trial_button,0,54,54,24,1,beach,invisiblesun,noclouds,3,"750.089190153407,500",
,,,,,,,de,de,de,f,24,,2021-08-05_17h00.13.085,online_experiment,2021.1.4,MacIntel,60.0024001,FALSE,,"Mozilla/5.0 (Macintosh; Intel Mac OS X 10_15_7) AppleWebKit/537.36 (KHTML, like Gecko) Chrome/91.0.4472.114 Safari/537.36",1440,690,1440,900,,,,,,,,4,2.3092,0.373732639,-0.412938368,1,0,0,next_trial_button,0,55,55,6,1,landscape,visiblesun,noclouds,0,"1413.8005159071367,500",
,,,,,,,de,de,de,f,24,,2021-08-05_17h00.13.085,online_experiment,2021.1.4,MacIntel,60.0024001,FALSE,,"Mozilla/5.0 (Macintosh; Intel Mac OS X 10_15_7) AppleWebKit/537.36 (KHTML, like Gecko) Chrome/91.0.4472.114 Safari/537.36",1440,690,1440,900,,,,,,,,2,2.0745,0.404097222,-0.399084201,1,0,0,next_trial_button,0,56,56,52,1,landscape,invisiblesun,noclouds,6,"666.6666666666666,500",
,,,,,,,de,de,de,f,24,,2021-08-05_17h00.13.085,online_experiment,2021.1.4,MacIntel,60.0024001,FALSE,,"Mozilla/5.0 (Macintosh; Intel Mac OS X 10_15_7) AppleWebKit/537.36 (KHTML, like Gecko) Chrome/91.0.4472.114 Safari/537.36",1440,690,1440,900,,,,,,,,3,2.0161,0.384778646,-0.419361979,1,0,0,next_trial_button,0,57,57,69,1,landscape,invisiblesun,yesclouds,8,"750,500",
,,,,,,,de,de,de,f,24,,2021-08-05_17h00.13.085,online_experiment,2021.1.4,MacIntel,60.0024001,FALSE,,"Mozilla/5.0 (Macintosh; Intel Mac OS X 10_15_7) AppleWebKit/537.36 (KHTML, like Gecko) Chrome/91.0.4472.114 Safari/537.36",1440,690,1440,900,,,,,,,,4,3.0137,0.381835938,-0.414926215,1,0,0,next_trial_button,0,58,58,40,1,beach,invisiblesun,noclouds,5,"1028.5714285714284,500",
,,,,,,,de,de,de,f,24,,2021-08-05_17h00.13.085,online_experiment,2021.1.4,MacIntel,60.0024001,FALSE,,"Mozilla/5.0 (Macintosh; Intel Mac OS X 10_15_7) AppleWebKit/537.36 (KHTML, like Gecko) Chrome/91.0.4472.114 Safari/537.36",1440,690,1440,900,,,,,,,,6,2.9444,0.330121528,-0.417078993,1,0,0,next_trial_button,0,59,59,57,1,beach,invisiblesun,yesclouds,7,"749.707488299532,500",
,,,,,,,de,de,de,f,24,,2021-08-05_17h00.13.085,online_experiment,2021.1.4,MacIntel,60.0024001,FALSE,,"Mozilla/5.0 (Macintosh; Intel Mac OS X 10_15_7) AppleWebKit/537.36 (KHTML, like Gecko) Chrome/91.0.4472.114 Safari/537.36",1440,690,1440,900,,,,,,,,4,4.4314,0.375737847,-0.417695313,1,0,0,next_trial_button,0,60,60,74,1,beach,visiblesun,noclouds,9,"1028.5714285714284,500",
,,,,,,,de,de,de,f,24,,2021-08-05_17h00.13.085,online_experiment,2021.1.4,MacIntel,60.0024001,FALSE,,"Mozilla/5.0 (Macintosh; Intel Mac OS X 10_15_7) AppleWebKit/537.36 (KHTML, like Gecko) Chrome/91.0.4472.114 Safari/537.36",1440,690,1440,900,,,,,,,,2,1.777,0.351883681,-0.405772569,1,0,0,next_trial_button,0,61,61,73,1,beach,invisiblesun,yesclouds,9,"1028.5714285714284,500",
,,,,,,,de,de,de,f,24,,2021-08-05_17h00.13.085,online_experiment,2021.1.4,MacIntel,60.0024001,FALSE,,"Mozilla/5.0 (Macintosh; Intel Mac OS X 10_15_7) AppleWebKit/537.36 (KHTML, like Gecko) Chrome/91.0.4472.114 Safari/537.36",1440,690,1440,900,,,,,,,,5,4.2239,0.409244792,-0.431449653,1,0,0,next_trial_button,0,62,62,31,1,landscape,visiblesun,yesclouds,3,"638.0622837370242,500",
,,,,,,,de,de,de,f,24,,2021-08-05_17h00.13.085,online_experiment,2021.1.4,MacIntel,60.0024001,FALSE,,"Mozilla/5.0 (Macintosh; Intel Mac OS X 10_15_7) AppleWebKit/537.36 (KHTML, like Gecko) Chrome/91.0.4472.114 Safari/537.36",1440,690,1440,900,,,,,,,,2,2.7125,0.435594618,-0.424014757,1,0,0,next_trial_button,0,63,63,17,1,beach,invisiblesun,yesclouds,2,"684.8635235732011,500",
,,,,,,,de,de,de,f,24,,2021-08-05_17h00.13.085,online_experiment,2021.1.4,MacIntel,60.0024001,FALSE,,"Mozilla/5.0 (Macintosh; Intel Mac OS X 10_15_7) AppleWebKit/537.36 (KHTML, like Gecko) Chrome/91.0.4472.114 Safari/537.36",1440,690,1440,900,,,,,,,,5,3.2963,0.326553819,-0.418151042,1,0,0,next_trial_button,0,64,64,15,1,landscape,visiblesun,yesclouds,1,"333.3333333333333,500",
,,,,,,,de,de,de,f,24,,2021-08-05_17h00.13.085,online_experiment,2021.1.4,MacIntel,60.0024001,FALSE,,"Mozilla/5.0 (Macintosh; Intel Mac OS X 10_15_7) AppleWebKit/537.36 (KHTML, like Gecko) Chrome/91.0.4472.114 Safari/537.36",1440,690,1440,900,,,,,,,,1,1.9559,0.31124566,-0.430060764,1,0,0,next_trial_button,0,65,65,55,1,landscape,visiblesun,yesclouds,6,"749.8819083608881,500",
,,,,,,,de,de,de,f,24,,2021-08-05_17h00.13.085,online_experiment,2021.1.4,MacIntel,60.0024001,FALSE,,"Mozilla/5.0 (Macintosh; Intel Mac OS X 10_15_7) AppleWebKit/537.36 (KHTML, like Gecko) Chrome/91.0.4472.114 Safari/537.36",1440,690,1440,900,,,,,,,,5,2.5971,0.360377604,-0.431306424,1,0,0,next_trial_button,0,66,66,27,1,beach,visiblesun,yesclouds,3,"752.8089887640449,500",
,,,,,,,de,de,de,f,24,,2021-08-05_17h00.13.085,online_experiment,2021.1.4,MacIntel,60.0024001,FALSE,,"Mozilla/5.0 (Macintosh; Intel Mac OS X 10_15_7) AppleWebKit/537.36 (KHTML, like Gecko) Chrome/91.0.4472.114 Safari/537.36",1440,690,1440,900,,,,,,,,1,2.24,0.366653646,-0.438372396,1,0,0,next_trial_button,0,67,67,78,1,landscape,visiblesun,noclouds,9,"666.6666666666666,500",
,,,,,,,de,de,de,f,24,,2021-08-05_17h00.13.085,online_experiment,2021.1.4,MacIntel,60.0024001,FALSE,,"Mozilla/5.0 (Macintosh; Intel Mac OS X 10_15_7) AppleWebKit/537.36 (KHTML, like Gecko) Chrome/91.0.4472.114 Safari/537.36",1440,690,1440,900,,,,,,,,7,1.9448,0.364092882,-0.397508681,1,0,0,next_trial_button,0,68,68,10,1,beach,visiblesun,noclouds,1,"747.0261697065821,500",
,,,,,,,de,de,de,f,24,,2021-08-05_17h00.13.085,online_experiment,2021.1.4,MacIntel,60.0024001,FALSE,,"Mozilla/5.0 (Macintosh; Intel Mac OS X 10_15_7) AppleWebKit/537.36 (KHTML, like Gecko) Chrome/91.0.4472.114 Safari/537.36",1440,690,1440,900,,,,,,,,8,2.3795,0.359618056,-0.396579861,1,0,0,next_trial_button,0,69,69,41,1,beach,invisiblesun,yesclouds,5,"1248.4394506866417,500",
,,,,,,,de,de,de,f,24,,2021-08-05_17h00.13.085,online_experiment,2021.1.4,MacIntel,60.0024001,FALSE,,"Mozilla/5.0 (Macintosh; Intel Mac OS X 10_15_7) AppleWebKit/537.36 (KHTML, like Gecko) Chrome/91.0.4472.114 Safari/537.36",1440,690,1440,900,,,,,,,,2,2.0318,0.389578993,-0.423637153,1,0,0,next_trial_button,0,70,70,0,1,beach,invisiblesun,noclouds,0,"750,500",
,,,,,,,de,de,de,f,24,,2021-08-05_17h00.13.085,online_experiment,2021.1.4,MacIntel,60.0024001,FALSE,,"Mozilla/5.0 (Macintosh; Intel Mac OS X 10_15_7) AppleWebKit/537.36 (KHTML, like Gecko) Chrome/91.0.4472.114 Safari/537.36",1440,690,1440,900,,,,,,,,4,6.2167,0.343138021,-0.407621528,1,0,0,next_trial_button,0,71,71,38,1,landscape,visiblesun,noclouds,4,"733.3333333333333,500",
,,,,,,,de,de,de,f,24,,2021-08-05_17h00.13.085,online_experiment,2021.1.4,MacIntel,60.0024001,FALSE,,"Mozilla/5.0 (Macintosh; Intel Mac OS X 10_15_7) AppleWebKit/537.36 (KHTML, like Gecko) Chrome/91.0.4472.114 Safari/537.36",1440,690,1440,900,,,,,,,,2,1.8963,0.333884549,-0.403914931,1,0,0,next_trial_button,0,72,72,33,1,beach,invisiblesun,yesclouds,4,"751.5473032714411,500",
,,,,,,,de,de,de,f,24,,2021-08-05_17h00.13.085,online_experiment,2021.1.4,MacIntel,60.0024001,FALSE,,"Mozilla/5.0 (Macintosh; Intel Mac OS X 10_15_7) AppleWebKit/537.36 (KHTML, like Gecko) Chrome/91.0.4472.114 Safari/537.36",1440,690,1440,900,,,,,,,,4,2.7118,0.385373264,-0.40140191,1,0,0,next_trial_button,0,73,73,4,1,landscape,invisiblesun,noclouds,0,"1276.9171185127807,500",
,,,,,,,de,de,de,f,24,,2021-08-05_17h00.13.085,online_experiment,2021.1.4,MacIntel,60.0024001,FALSE,,"Mozilla/5.0 (Macintosh; Intel Mac OS X 10_15_7) AppleWebKit/537.36 (KHTML, like Gecko) Chrome/91.0.4472.114 Safari/537.36",1440,690,1440,900,,,,,,,,1,2.5814,0.413524306,-0.406657986,1,0,0,next_trial_button,0,74,74,28,1,landscape,invisiblesun,noclouds,3,"888.8888888888888,500",
,,,,,,,de,de,de,f,24,,2021-08-05_17h00.13.085,online_experiment,2021.1.4,MacIntel,60.0024001,FALSE,,"Mozilla/5.0 (Macintosh; Intel Mac OS X 10_15_7) AppleWebKit/537.36 (KHTML, like Gecko) Chrome/91.0.4472.114 Safari/537.36",1440,690,1440,900,,,,,,,,3,3.4795,0.412113715,-0.435447049,1,0,0,next_trial_button,0,75,75,30,1,landscape,visiblesun,noclouds,3,"346.3035019455253,500",
,,,,,,,de,de,de,f,24,,2021-08-05_17h00.13.085,online_experiment,2021.1.4,MacIntel,60.0024001,FALSE,,"Mozilla/5.0 (Macintosh; Intel Mac OS X 10_15_7) AppleWebKit/537.36 (KHTML, like Gecko) Chrome/91.0.4472.114 Safari/537.36",1440,690,1440,900,,,,,,,,3,4.1478,0.423532986,-0.425616319,1,0,0,next_trial_button,0,76,76,50,1,beach,visiblesun,noclouds,6,"666.6666666666666,500",
,,,,,,,de,de,de,f,24,,2021-08-05_17h00.13.085,online_experiment,2021.1.4,MacIntel,60.0024001,FALSE,,"Mozilla/5.0 (Macintosh; Intel Mac OS X 10_15_7) AppleWebKit/537.36 (KHTML, like Gecko) Chrome/91.0.4472.114 Safari/537.36",1440,690,1440,900,,,,,,,,4,2.4572,0.360638021,-0.440134549,1,0,0,next_trial_button,0,77,77,53,1,landscape,invisiblesun,yesclouds,6,"750.0695023630803,500",
,,,,,,,de,de,de,f,24,,2021-08-05_17h00.13.085,online_experiment,2021.1.4,MacIntel,60.0024001,FALSE,,"Mozilla/5.0 (Macintosh; Intel Mac OS X 10_15_7) AppleWebKit/537.36 (KHTML, like Gecko) Chrome/91.0.4472.114 Safari/537.36",1440,690,1440,900,,,,,,,,5,2.2609,0.347426215,-0.404014757,1,0,0,next_trial_button,0,78,78,14,1,landscape,visiblesun,noclouds,1,"745.9919839679359,500",
,,,,,,,de,de,de,f,24,,2021-08-05_17h00.13.085,online_experiment,2021.1.4,MacIntel,60.0024001,FALSE,,"Mozilla/5.0 (Macintosh; Intel Mac OS X 10_15_7) AppleWebKit/537.36 (KHTML, like Gecko) Chrome/91.0.4472.114 Safari/537.36",1440,690,1440,900,,,,,,,,3,2.7502,0.361019965,-0.399431424,1,0,0,next_trial_button,0,79,79,12,1,landscape,invisiblesun,noclouds,1,"666.6666666666666,500",
,,,,,,,de,de,de,f,24,,2021-08-05_17h00.13.085,online_experiment,2021.1.4,MacIntel,60.0024001,FALSE,,"Mozilla/5.0 (Macintosh; Intel Mac OS X 10_15_7) AppleWebKit/537.36 (KHTML, like Gecko) Chrome/91.0.4472.114 Safari/537.36",1440,690,1440,900,,,,,,,,,,,,,,,,,,,,,,,,,"666.6666666666666,500",302.8161
