language_mouse.x,language_mouse.y,language_mouse.leftButton,language_mouse.midButton,language_mouse.rightButton,language_mouse.time,language_mouse.clicked_name,nationality,mother_tongue,homeland,gender,age,email,date,expName,psychopyVersion,OS,frameRate,fbclid,cancel_experiment,cancel_reasons,client_agent_information,windowWidth,windowHeight,xRes,yRes,start_exp_mouse.x,start_exp_mouse.y,start_exp_mouse.leftButton,start_exp_mouse.midButton,start_exp_mouse.rightButton,start_exp_mouse.time,start_exp_mouse.clicked_name,rating_slider.response,rating_slider.rt,next_trial_mouse.x,next_trial_mouse.y,next_trial_mouse.leftButton,next_trial_mouse.midButton,next_trial_mouse.rightButton,next_trial_mouse.clicked_name,trials.thisRepN,trials.thisTrialN,trials.thisN,trials.thisIndex,trials.ran,environment,sunVisibility,cloudVisibility,imageId,imgSize,globalClockTime
0.318518519,-0.224074074,1,0,0,0.1019,gr_flag,gr,gr,gr,m,24,,2021-09-01_13h29.02.336,online_experiment,2021.1.4,Win32,59.18560606,IwAR1Su62YtRLkdLxqQXQ6_g2NAZOz_ZxGCWnKIxkE-aHq0cd2db6ctvo6yjo,FALSE,,"Mozilla/5.0 (Windows NT 10.0; Win64; x64) AppleWebKit/537.36 (KHTML, like Gecko) Chrome/92.0.4515.159 Safari/537.36",1918,977,1920,1080,,,,,,,,,,,,,,,,,,,,,,,,,,
,,,,,,,gr,gr,gr,m,24,,2021-09-01_13h29.02.336,online_experiment,2021.1.4,Win32,59.18560606,IwAR1Su62YtRLkdLxqQXQ6_g2NAZOz_ZxGCWnKIxkE-aHq0cd2db6ctvo6yjo,FALSE,,"Mozilla/5.0 (Windows NT 10.0; Win64; x64) AppleWebKit/537.36 (KHTML, like Gecko) Chrome/92.0.4515.159 Safari/537.36",1918,977,1920,1080,0.041666667,-0.411111111,1,0,0,4.2153,cont_gr,7,4.0634,0.437962963,-0.416666667,1,0,0,next_trial_button,0,0,0,20,1,landscape,invisiblesun,noclouds,2,"755.192878338279,500",
,,,,,,,gr,gr,gr,m,24,,2021-09-01_13h29.02.336,online_experiment,2021.1.4,Win32,59.18560606,IwAR1Su62YtRLkdLxqQXQ6_g2NAZOz_ZxGCWnKIxkE-aHq0cd2db6ctvo6yjo,FALSE,,"Mozilla/5.0 (Windows NT 10.0; Win64; x64) AppleWebKit/537.36 (KHTML, like Gecko) Chrome/92.0.4515.159 Safari/537.36",1918,977,1920,1080,,,,,,,,4,4.0254,0.496296296,-0.421296296,1,0,0,next_trial_button,0,1,1,76,1,landscape,invisiblesun,noclouds,9,"1056.6037735849056,500",
,,,,,,,gr,gr,gr,m,24,,2021-09-01_13h29.02.336,online_experiment,2021.1.4,Win32,59.18560606,IwAR1Su62YtRLkdLxqQXQ6_g2NAZOz_ZxGCWnKIxkE-aHq0cd2db6ctvo6yjo,FALSE,,"Mozilla/5.0 (Windows NT 10.0; Win64; x64) AppleWebKit/537.36 (KHTML, like Gecko) Chrome/92.0.4515.159 Safari/537.36",1918,977,1920,1080,,,,,,,,7,3.0325,0.400925926,-0.436111111,1,0,0,next_trial_button,0,2,2,9,1,beach,invisiblesun,yesclouds,1,"750,500",
,,,,,,,gr,gr,gr,m,24,,2021-09-01_13h29.02.336,online_experiment,2021.1.4,Win32,59.18560606,IwAR1Su62YtRLkdLxqQXQ6_g2NAZOz_ZxGCWnKIxkE-aHq0cd2db6ctvo6yjo,FALSE,,"Mozilla/5.0 (Windows NT 10.0; Win64; x64) AppleWebKit/537.36 (KHTML, like Gecko) Chrome/92.0.4515.159 Safari/537.36",1918,977,1920,1080,,,,,,,,5,2.6218,0.462037037,-0.422222222,1,0,0,next_trial_button,0,3,3,71,1,landscape,visiblesun,yesclouds,8,"666.6666666666666,500",
,,,,,,,gr,gr,gr,m,24,,2021-09-01_13h29.02.336,online_experiment,2021.1.4,Win32,59.18560606,IwAR1Su62YtRLkdLxqQXQ6_g2NAZOz_ZxGCWnKIxkE-aHq0cd2db6ctvo6yjo,FALSE,,"Mozilla/5.0 (Windows NT 10.0; Win64; x64) AppleWebKit/537.36 (KHTML, like Gecko) Chrome/92.0.4515.159 Safari/537.36",1918,977,1920,1080,,,,,,,,5,3.239,0.462962963,-0.433333333,1,0,0,next_trial_button,0,4,4,27,1,beach,visiblesun,yesclouds,3,"752.8089887640449,500",
,,,,,,,gr,gr,gr,m,24,,2021-09-01_13h29.02.336,online_experiment,2021.1.4,Win32,59.18560606,IwAR1Su62YtRLkdLxqQXQ6_g2NAZOz_ZxGCWnKIxkE-aHq0cd2db6ctvo6yjo,FALSE,,"Mozilla/5.0 (Windows NT 10.0; Win64; x64) AppleWebKit/537.36 (KHTML, like Gecko) Chrome/92.0.4515.159 Safari/537.36",1918,977,1920,1080,,,,,,,,8,1.9217,0.402777778,-0.42037037,1,0,0,next_trial_button,0,5,5,65,1,beach,invisiblesun,yesclouds,8,"750,500",
,,,,,,,gr,gr,gr,m,24,,2021-09-01_13h29.02.336,online_experiment,2021.1.4,Win32,59.18560606,IwAR1Su62YtRLkdLxqQXQ6_g2NAZOz_ZxGCWnKIxkE-aHq0cd2db6ctvo6yjo,FALSE,,"Mozilla/5.0 (Windows NT 10.0; Win64; x64) AppleWebKit/537.36 (KHTML, like Gecko) Chrome/92.0.4515.159 Safari/537.36",1918,977,1920,1080,,,,,,,,4,1.6637,0.380555556,-0.400925926,1,0,0,next_trial_button,0,6,6,58,1,beach,visiblesun,noclouds,7,"1028.5714285714284,500",
,,,,,,,gr,gr,gr,m,24,,2021-09-01_13h29.02.336,online_experiment,2021.1.4,Win32,59.18560606,IwAR1Su62YtRLkdLxqQXQ6_g2NAZOz_ZxGCWnKIxkE-aHq0cd2db6ctvo6yjo,FALSE,,"Mozilla/5.0 (Windows NT 10.0; Win64; x64) AppleWebKit/537.36 (KHTML, like Gecko) Chrome/92.0.4515.159 Safari/537.36",1918,977,1920,1080,,,,,,,,5,1.6694,0.402777778,-0.422222222,1,0,0,next_trial_button,0,7,7,79,1,landscape,visiblesun,yesclouds,9,"1028.5714285714284,500",
,,,,,,,gr,gr,gr,m,24,,2021-09-01_13h29.02.336,online_experiment,2021.1.4,Win32,59.18560606,IwAR1Su62YtRLkdLxqQXQ6_g2NAZOz_ZxGCWnKIxkE-aHq0cd2db6ctvo6yjo,FALSE,,"Mozilla/5.0 (Windows NT 10.0; Win64; x64) AppleWebKit/537.36 (KHTML, like Gecko) Chrome/92.0.4515.159 Safari/537.36",1918,977,1920,1080,,,,,,,,7,1.9649,0.525925926,-0.447222222,1,0,0,next_trial_button,0,8,8,37,1,landscape,invisiblesun,yesclouds,4,"669.4214876033058,500",
,,,,,,,gr,gr,gr,m,24,,2021-09-01_13h29.02.336,online_experiment,2021.1.4,Win32,59.18560606,IwAR1Su62YtRLkdLxqQXQ6_g2NAZOz_ZxGCWnKIxkE-aHq0cd2db6ctvo6yjo,FALSE,,"Mozilla/5.0 (Windows NT 10.0; Win64; x64) AppleWebKit/537.36 (KHTML, like Gecko) Chrome/92.0.4515.159 Safari/537.36",1918,977,1920,1080,,,,,,,,6,1.8467,0.483333333,-0.438888889,1,0,0,next_trial_button,0,9,9,49,1,beach,invisiblesun,yesclouds,6,"858.4474885844749,500",
,,,,,,,gr,gr,gr,m,24,,2021-09-01_13h29.02.336,online_experiment,2021.1.4,Win32,59.18560606,IwAR1Su62YtRLkdLxqQXQ6_g2NAZOz_ZxGCWnKIxkE-aHq0cd2db6ctvo6yjo,FALSE,,"Mozilla/5.0 (Windows NT 10.0; Win64; x64) AppleWebKit/537.36 (KHTML, like Gecko) Chrome/92.0.4515.159 Safari/537.36",1918,977,1920,1080,,,,,,,,5,1.7568,0.384259259,-0.437037037,1,0,0,next_trial_button,0,10,10,18,1,beach,visiblesun,noclouds,2,"666.6666666666666,500",
,,,,,,,gr,gr,gr,m,24,,2021-09-01_13h29.02.336,online_experiment,2021.1.4,Win32,59.18560606,IwAR1Su62YtRLkdLxqQXQ6_g2NAZOz_ZxGCWnKIxkE-aHq0cd2db6ctvo6yjo,FALSE,,"Mozilla/5.0 (Windows NT 10.0; Win64; x64) AppleWebKit/537.36 (KHTML, like Gecko) Chrome/92.0.4515.159 Safari/537.36",1918,977,1920,1080,,,,,,,,8,4.5375,0.421296296,-0.424074074,1,0,0,next_trial_button,0,11,11,61,1,landscape,invisiblesun,yesclouds,7,"500,500",
,,,,,,,gr,gr,gr,m,24,,2021-09-01_13h29.02.336,online_experiment,2021.1.4,Win32,59.18560606,IwAR1Su62YtRLkdLxqQXQ6_g2NAZOz_ZxGCWnKIxkE-aHq0cd2db6ctvo6yjo,FALSE,,"Mozilla/5.0 (Windows NT 10.0; Win64; x64) AppleWebKit/537.36 (KHTML, like Gecko) Chrome/92.0.4515.159 Safari/537.36",1918,977,1920,1080,,,,,,,,7,2.4305,0.408333333,-0.39537037,1,0,0,next_trial_button,0,12,12,31,1,landscape,visiblesun,yesclouds,3,"638.0622837370242,500",
,,,,,,,gr,gr,gr,m,24,,2021-09-01_13h29.02.336,online_experiment,2021.1.4,Win32,59.18560606,IwAR1Su62YtRLkdLxqQXQ6_g2NAZOz_ZxGCWnKIxkE-aHq0cd2db6ctvo6yjo,FALSE,,"Mozilla/5.0 (Windows NT 10.0; Win64; x64) AppleWebKit/537.36 (KHTML, like Gecko) Chrome/92.0.4515.159 Safari/537.36",1918,977,1920,1080,,,,,,,,4,1.5543,0.356481481,-0.424074074,1,0,0,next_trial_button,0,13,13,40,1,beach,invisiblesun,noclouds,5,"1028.5714285714284,500",
,,,,,,,gr,gr,gr,m,24,,2021-09-01_13h29.02.336,online_experiment,2021.1.4,Win32,59.18560606,IwAR1Su62YtRLkdLxqQXQ6_g2NAZOz_ZxGCWnKIxkE-aHq0cd2db6ctvo6yjo,FALSE,,"Mozilla/5.0 (Windows NT 10.0; Win64; x64) AppleWebKit/537.36 (KHTML, like Gecko) Chrome/92.0.4515.159 Safari/537.36",1918,977,1920,1080,,,,,,,,5,23.0837,0.442592593,-0.399074074,1,0,0,next_trial_button,0,14,14,55,1,landscape,visiblesun,yesclouds,6,"749.8819083608881,500",
,,,,,,,gr,gr,gr,m,24,,2021-09-01_13h29.02.336,online_experiment,2021.1.4,Win32,59.18560606,IwAR1Su62YtRLkdLxqQXQ6_g2NAZOz_ZxGCWnKIxkE-aHq0cd2db6ctvo6yjo,FALSE,,"Mozilla/5.0 (Windows NT 10.0; Win64; x64) AppleWebKit/537.36 (KHTML, like Gecko) Chrome/92.0.4515.159 Safari/537.36",1918,977,1920,1080,,,,,,,,3,2.1075,0.487037037,-0.447222222,1,0,0,next_trial_button,0,15,15,50,1,beach,visiblesun,noclouds,6,"666.6666666666666,500",
,,,,,,,gr,gr,gr,m,24,,2021-09-01_13h29.02.336,online_experiment,2021.1.4,Win32,59.18560606,IwAR1Su62YtRLkdLxqQXQ6_g2NAZOz_ZxGCWnKIxkE-aHq0cd2db6ctvo6yjo,FALSE,,"Mozilla/5.0 (Windows NT 10.0; Win64; x64) AppleWebKit/537.36 (KHTML, like Gecko) Chrome/92.0.4515.159 Safari/537.36",1918,977,1920,1080,,,,,,,,6,4.8878,0.499074074,-0.415740741,1,0,0,next_trial_button,0,16,16,22,1,landscape,visiblesun,noclouds,2,"749.3333333333333,500",
,,,,,,,gr,gr,gr,m,24,,2021-09-01_13h29.02.336,online_experiment,2021.1.4,Win32,59.18560606,IwAR1Su62YtRLkdLxqQXQ6_g2NAZOz_ZxGCWnKIxkE-aHq0cd2db6ctvo6yjo,FALSE,,"Mozilla/5.0 (Windows NT 10.0; Win64; x64) AppleWebKit/537.36 (KHTML, like Gecko) Chrome/92.0.4515.159 Safari/537.36",1918,977,1920,1080,,,,,,,,5,1.8859,0.473148148,-0.39537037,1,0,0,next_trial_button,0,17,17,3,1,beach,visiblesun,yesclouds,0,"1152.5122276567363,500",
,,,,,,,gr,gr,gr,m,24,,2021-09-01_13h29.02.336,online_experiment,2021.1.4,Win32,59.18560606,IwAR1Su62YtRLkdLxqQXQ6_g2NAZOz_ZxGCWnKIxkE-aHq0cd2db6ctvo6yjo,FALSE,,"Mozilla/5.0 (Windows NT 10.0; Win64; x64) AppleWebKit/537.36 (KHTML, like Gecko) Chrome/92.0.4515.159 Safari/537.36",1918,977,1920,1080,,,,,,,,5,1.7403,0.35462963,-0.40462963,1,0,0,next_trial_button,0,18,18,38,1,landscape,visiblesun,noclouds,4,"733.3333333333333,500",
,,,,,,,gr,gr,gr,m,24,,2021-09-01_13h29.02.336,online_experiment,2021.1.4,Win32,59.18560606,IwAR1Su62YtRLkdLxqQXQ6_g2NAZOz_ZxGCWnKIxkE-aHq0cd2db6ctvo6yjo,FALSE,,"Mozilla/5.0 (Windows NT 10.0; Win64; x64) AppleWebKit/537.36 (KHTML, like Gecko) Chrome/92.0.4515.159 Safari/537.36",1918,977,1920,1080,,,,,,,,7,2.661,0.353703704,-0.414814815,1,0,0,next_trial_button,0,19,19,32,1,beach,invisiblesun,noclouds,4,"750,500",
,,,,,,,gr,gr,gr,m,24,,2021-09-01_13h29.02.336,online_experiment,2021.1.4,Win32,59.18560606,IwAR1Su62YtRLkdLxqQXQ6_g2NAZOz_ZxGCWnKIxkE-aHq0cd2db6ctvo6yjo,FALSE,,"Mozilla/5.0 (Windows NT 10.0; Win64; x64) AppleWebKit/537.36 (KHTML, like Gecko) Chrome/92.0.4515.159 Safari/537.36",1918,977,1920,1080,,,,,,,,5,2.1428,0.477777778,-0.407407407,1,0,0,next_trial_button,0,20,20,77,1,landscape,invisiblesun,yesclouds,9,"888.8888888888888,500",
,,,,,,,gr,gr,gr,m,24,,2021-09-01_13h29.02.336,online_experiment,2021.1.4,Win32,59.18560606,IwAR1Su62YtRLkdLxqQXQ6_g2NAZOz_ZxGCWnKIxkE-aHq0cd2db6ctvo6yjo,FALSE,,"Mozilla/5.0 (Windows NT 10.0; Win64; x64) AppleWebKit/537.36 (KHTML, like Gecko) Chrome/92.0.4515.159 Safari/537.36",1918,977,1920,1080,,,,,,,,5,1.9599,0.377777778,-0.399074074,1,0,0,next_trial_button,0,21,21,70,1,landscape,visiblesun,noclouds,8,"666.6666666666666,500",
,,,,,,,gr,gr,gr,m,24,,2021-09-01_13h29.02.336,online_experiment,2021.1.4,Win32,59.18560606,IwAR1Su62YtRLkdLxqQXQ6_g2NAZOz_ZxGCWnKIxkE-aHq0cd2db6ctvo6yjo,FALSE,,"Mozilla/5.0 (Windows NT 10.0; Win64; x64) AppleWebKit/537.36 (KHTML, like Gecko) Chrome/92.0.4515.159 Safari/537.36",1918,977,1920,1080,,,,,,,,7,1.4762,0.402777778,-0.400925926,1,0,0,next_trial_button,0,22,22,29,1,landscape,invisiblesun,yesclouds,3,"749.8660953401178,500",
,,,,,,,gr,gr,gr,m,24,,2021-09-01_13h29.02.336,online_experiment,2021.1.4,Win32,59.18560606,IwAR1Su62YtRLkdLxqQXQ6_g2NAZOz_ZxGCWnKIxkE-aHq0cd2db6ctvo6yjo,FALSE,,"Mozilla/5.0 (Windows NT 10.0; Win64; x64) AppleWebKit/537.36 (KHTML, like Gecko) Chrome/92.0.4515.159 Safari/537.36",1918,977,1920,1080,,,,,,,,6,2.2085,0.428703704,-0.412962963,1,0,0,next_trial_button,0,23,23,47,1,landscape,visiblesun,yesclouds,5,"666.6666666666666,500",
,,,,,,,gr,gr,gr,m,24,,2021-09-01_13h29.02.336,online_experiment,2021.1.4,Win32,59.18560606,IwAR1Su62YtRLkdLxqQXQ6_g2NAZOz_ZxGCWnKIxkE-aHq0cd2db6ctvo6yjo,FALSE,,"Mozilla/5.0 (Windows NT 10.0; Win64; x64) AppleWebKit/537.36 (KHTML, like Gecko) Chrome/92.0.4515.159 Safari/537.36",1918,977,1920,1080,,,,,,,,4,3.3884,0.537037037,-0.442592593,1,0,0,next_trial_button,0,24,24,16,1,beach,invisiblesun,noclouds,2,"752.8089887640449,500",
,,,,,,,gr,gr,gr,m,24,,2021-09-01_13h29.02.336,online_experiment,2021.1.4,Win32,59.18560606,IwAR1Su62YtRLkdLxqQXQ6_g2NAZOz_ZxGCWnKIxkE-aHq0cd2db6ctvo6yjo,FALSE,,"Mozilla/5.0 (Windows NT 10.0; Win64; x64) AppleWebKit/537.36 (KHTML, like Gecko) Chrome/92.0.4515.159 Safari/537.36",1918,977,1920,1080,,,,,,,,4,1.4113,0.350925926,-0.400925926,1,0,0,next_trial_button,0,25,25,75,1,beach,visiblesun,yesclouds,9,"1029.6010296010297,500",
,,,,,,,gr,gr,gr,m,24,,2021-09-01_13h29.02.336,online_experiment,2021.1.4,Win32,59.18560606,IwAR1Su62YtRLkdLxqQXQ6_g2NAZOz_ZxGCWnKIxkE-aHq0cd2db6ctvo6yjo,FALSE,,"Mozilla/5.0 (Windows NT 10.0; Win64; x64) AppleWebKit/537.36 (KHTML, like Gecko) Chrome/92.0.4515.159 Safari/537.36",1918,977,1920,1080,,,,,,,,5,2.0378,0.409259259,-0.424074074,1,0,0,next_trial_button,0,26,26,1,1,beach,invisiblesun,yesclouds,0,"666.6666666666666,500",
,,,,,,,gr,gr,gr,m,24,,2021-09-01_13h29.02.336,online_experiment,2021.1.4,Win32,59.18560606,IwAR1Su62YtRLkdLxqQXQ6_g2NAZOz_ZxGCWnKIxkE-aHq0cd2db6ctvo6yjo,FALSE,,"Mozilla/5.0 (Windows NT 10.0; Win64; x64) AppleWebKit/537.36 (KHTML, like Gecko) Chrome/92.0.4515.159 Safari/537.36",1918,977,1920,1080,,,,,,,,8,1.7785,0.343518519,-0.417592593,1,0,0,next_trial_button,0,27,27,53,1,landscape,invisiblesun,yesclouds,6,"750.0695023630803,500",
,,,,,,,gr,gr,gr,m,24,,2021-09-01_13h29.02.336,online_experiment,2021.1.4,Win32,59.18560606,IwAR1Su62YtRLkdLxqQXQ6_g2NAZOz_ZxGCWnKIxkE-aHq0cd2db6ctvo6yjo,FALSE,,"Mozilla/5.0 (Windows NT 10.0; Win64; x64) AppleWebKit/537.36 (KHTML, like Gecko) Chrome/92.0.4515.159 Safari/537.36",1918,977,1920,1080,,,,,,,,4,1.9205,0.447222222,-0.425,1,0,0,next_trial_button,0,28,28,33,1,beach,invisiblesun,yesclouds,4,"751.5473032714411,500",
,,,,,,,gr,gr,gr,m,24,,2021-09-01_13h29.02.336,online_experiment,2021.1.4,Win32,59.18560606,IwAR1Su62YtRLkdLxqQXQ6_g2NAZOz_ZxGCWnKIxkE-aHq0cd2db6ctvo6yjo,FALSE,,"Mozilla/5.0 (Windows NT 10.0; Win64; x64) AppleWebKit/537.36 (KHTML, like Gecko) Chrome/92.0.4515.159 Safari/537.36",1918,977,1920,1080,,,,,,,,2,2.0537,0.482407407,-0.387962963,1,0,0,next_trial_button,0,29,29,44,1,landscape,invisiblesun,noclouds,5,"666.6666666666666,500",
,,,,,,,gr,gr,gr,m,24,,2021-09-01_13h29.02.336,online_experiment,2021.1.4,Win32,59.18560606,IwAR1Su62YtRLkdLxqQXQ6_g2NAZOz_ZxGCWnKIxkE-aHq0cd2db6ctvo6yjo,FALSE,,"Mozilla/5.0 (Windows NT 10.0; Win64; x64) AppleWebKit/537.36 (KHTML, like Gecko) Chrome/92.0.4515.159 Safari/537.36",1918,977,1920,1080,,,,,,,,3,1.971,0.500925926,-0.424074074,1,0,0,next_trial_button,0,30,30,67,1,beach,visiblesun,yesclouds,8,"748.1481481481482,500",
,,,,,,,gr,gr,gr,m,24,,2021-09-01_13h29.02.336,online_experiment,2021.1.4,Win32,59.18560606,IwAR1Su62YtRLkdLxqQXQ6_g2NAZOz_ZxGCWnKIxkE-aHq0cd2db6ctvo6yjo,FALSE,,"Mozilla/5.0 (Windows NT 10.0; Win64; x64) AppleWebKit/537.36 (KHTML, like Gecko) Chrome/92.0.4515.159 Safari/537.36",1918,977,1920,1080,,,,,,,,7,1.9557,0.442592593,-0.442592593,1,0,0,next_trial_button,0,31,31,48,1,beach,invisiblesun,noclouds,6,"1028.5714285714284,500",
,,,,,,,gr,gr,gr,m,24,,2021-09-01_13h29.02.336,online_experiment,2021.1.4,Win32,59.18560606,IwAR1Su62YtRLkdLxqQXQ6_g2NAZOz_ZxGCWnKIxkE-aHq0cd2db6ctvo6yjo,FALSE,,"Mozilla/5.0 (Windows NT 10.0; Win64; x64) AppleWebKit/537.36 (KHTML, like Gecko) Chrome/92.0.4515.159 Safari/537.36",1918,977,1920,1080,,,,,,,,8,2.1534,0.488888889,-0.405555556,1,0,0,next_trial_button,0,32,32,4,1,landscape,invisiblesun,noclouds,0,"1276.9171185127807,500",
,,,,,,,gr,gr,gr,m,24,,2021-09-01_13h29.02.336,online_experiment,2021.1.4,Win32,59.18560606,IwAR1Su62YtRLkdLxqQXQ6_g2NAZOz_ZxGCWnKIxkE-aHq0cd2db6ctvo6yjo,FALSE,,"Mozilla/5.0 (Windows NT 10.0; Win64; x64) AppleWebKit/537.36 (KHTML, like Gecko) Chrome/92.0.4515.159 Safari/537.36",1918,977,1920,1080,,,,,,,,3,1.6584,0.425,-0.430555556,1,0,0,next_trial_button,0,33,33,62,1,landscape,visiblesun,noclouds,7,"417.42389822807814,500",
,,,,,,,gr,gr,gr,m,24,,2021-09-01_13h29.02.336,online_experiment,2021.1.4,Win32,59.18560606,IwAR1Su62YtRLkdLxqQXQ6_g2NAZOz_ZxGCWnKIxkE-aHq0cd2db6ctvo6yjo,FALSE,,"Mozilla/5.0 (Windows NT 10.0; Win64; x64) AppleWebKit/537.36 (KHTML, like Gecko) Chrome/92.0.4515.159 Safari/537.36",1918,977,1920,1080,,,,,,,,5,2.2985,0.455555556,-0.382407407,1,0,0,next_trial_button,0,34,34,15,1,landscape,visiblesun,yesclouds,1,"333.3333333333333,500",
,,,,,,,gr,gr,gr,m,24,,2021-09-01_13h29.02.336,online_experiment,2021.1.4,Win32,59.18560606,IwAR1Su62YtRLkdLxqQXQ6_g2NAZOz_ZxGCWnKIxkE-aHq0cd2db6ctvo6yjo,FALSE,,"Mozilla/5.0 (Windows NT 10.0; Win64; x64) AppleWebKit/537.36 (KHTML, like Gecko) Chrome/92.0.4515.159 Safari/537.36",1918,977,1920,1080,,,,,,,,5,1.6481,0.505555556,-0.441666667,1,0,0,next_trial_button,0,35,35,63,1,landscape,visiblesun,yesclouds,7,"331.94444444444446,500",
,,,,,,,gr,gr,gr,m,24,,2021-09-01_13h29.02.336,online_experiment,2021.1.4,Win32,59.18560606,IwAR1Su62YtRLkdLxqQXQ6_g2NAZOz_ZxGCWnKIxkE-aHq0cd2db6ctvo6yjo,FALSE,,"Mozilla/5.0 (Windows NT 10.0; Win64; x64) AppleWebKit/537.36 (KHTML, like Gecko) Chrome/92.0.4515.159 Safari/537.36",1918,977,1920,1080,,,,,,,,5,1.9178,0.353703704,-0.42037037,1,0,0,next_trial_button,0,36,36,73,1,beach,invisiblesun,yesclouds,9,"1028.5714285714284,500",
,,,,,,,gr,gr,gr,m,24,,2021-09-01_13h29.02.336,online_experiment,2021.1.4,Win32,59.18560606,IwAR1Su62YtRLkdLxqQXQ6_g2NAZOz_ZxGCWnKIxkE-aHq0cd2db6ctvo6yjo,FALSE,,"Mozilla/5.0 (Windows NT 10.0; Win64; x64) AppleWebKit/537.36 (KHTML, like Gecko) Chrome/92.0.4515.159 Safari/537.36",1918,977,1920,1080,,,,,,,,5,1.4661,0.436111111,-0.409259259,1,0,0,next_trial_button,0,37,37,23,1,landscape,visiblesun,yesclouds,2,"767.97829036635,500",
,,,,,,,gr,gr,gr,m,24,,2021-09-01_13h29.02.336,online_experiment,2021.1.4,Win32,59.18560606,IwAR1Su62YtRLkdLxqQXQ6_g2NAZOz_ZxGCWnKIxkE-aHq0cd2db6ctvo6yjo,FALSE,,"Mozilla/5.0 (Windows NT 10.0; Win64; x64) AppleWebKit/537.36 (KHTML, like Gecko) Chrome/92.0.4515.159 Safari/537.36",1918,977,1920,1080,,,,,,,,5,1.7192,0.421296296,-0.406481481,1,0,0,next_trial_button,0,38,38,19,1,beach,visiblesun,yesclouds,2,"770.1393095093882,500",
,,,,,,,gr,gr,gr,m,24,,2021-09-01_13h29.02.336,online_experiment,2021.1.4,Win32,59.18560606,IwAR1Su62YtRLkdLxqQXQ6_g2NAZOz_ZxGCWnKIxkE-aHq0cd2db6ctvo6yjo,FALSE,,"Mozilla/5.0 (Windows NT 10.0; Win64; x64) AppleWebKit/537.36 (KHTML, like Gecko) Chrome/92.0.4515.159 Safari/537.36",1918,977,1920,1080,,,,,,,,4,5.4965,0.344444444,-0.382407407,1,0,0,next_trial_button,0,39,39,5,1,landscape,invisiblesun,yesclouds,0,"750.4690431519699,500",
,,,,,,,gr,gr,gr,m,24,,2021-09-01_13h29.02.336,online_experiment,2021.1.4,Win32,59.18560606,IwAR1Su62YtRLkdLxqQXQ6_g2NAZOz_ZxGCWnKIxkE-aHq0cd2db6ctvo6yjo,FALSE,,"Mozilla/5.0 (Windows NT 10.0; Win64; x64) AppleWebKit/537.36 (KHTML, like Gecko) Chrome/92.0.4515.159 Safari/537.36",1918,977,1920,1080,,,,,,,,4,1.7104,0.396296296,-0.444444444,1,0,0,next_trial_button,0,40,40,13,1,landscape,invisiblesun,yesclouds,1,"783.1192660550458,500",
,,,,,,,gr,gr,gr,m,24,,2021-09-01_13h29.02.336,online_experiment,2021.1.4,Win32,59.18560606,IwAR1Su62YtRLkdLxqQXQ6_g2NAZOz_ZxGCWnKIxkE-aHq0cd2db6ctvo6yjo,FALSE,,"Mozilla/5.0 (Windows NT 10.0; Win64; x64) AppleWebKit/537.36 (KHTML, like Gecko) Chrome/92.0.4515.159 Safari/537.36",1918,977,1920,1080,,,,,,,,4,1.5368,0.428703704,-0.452777778,1,0,0,next_trial_button,0,41,41,8,1,beach,invisiblesun,noclouds,1,"1215.1898734177216,500",
,,,,,,,gr,gr,gr,m,24,,2021-09-01_13h29.02.336,online_experiment,2021.1.4,Win32,59.18560606,IwAR1Su62YtRLkdLxqQXQ6_g2NAZOz_ZxGCWnKIxkE-aHq0cd2db6ctvo6yjo,FALSE,,"Mozilla/5.0 (Windows NT 10.0; Win64; x64) AppleWebKit/537.36 (KHTML, like Gecko) Chrome/92.0.4515.159 Safari/537.36",1918,977,1920,1080,,,,,,,,1,1.8948,0.512962963,-0.394444444,1,0,0,next_trial_button,0,42,42,30,1,landscape,visiblesun,noclouds,3,"346.3035019455253,500",
,,,,,,,gr,gr,gr,m,24,,2021-09-01_13h29.02.336,online_experiment,2021.1.4,Win32,59.18560606,IwAR1Su62YtRLkdLxqQXQ6_g2NAZOz_ZxGCWnKIxkE-aHq0cd2db6ctvo6yjo,FALSE,,"Mozilla/5.0 (Windows NT 10.0; Win64; x64) AppleWebKit/537.36 (KHTML, like Gecko) Chrome/92.0.4515.159 Safari/537.36",1918,977,1920,1080,,,,,,,,2,1.7627,0.359259259,-0.394444444,1,0,0,next_trial_button,0,43,43,10,1,beach,visiblesun,noclouds,1,"747.0261697065821,500",
,,,,,,,gr,gr,gr,m,24,,2021-09-01_13h29.02.336,online_experiment,2021.1.4,Win32,59.18560606,IwAR1Su62YtRLkdLxqQXQ6_g2NAZOz_ZxGCWnKIxkE-aHq0cd2db6ctvo6yjo,FALSE,,"Mozilla/5.0 (Windows NT 10.0; Win64; x64) AppleWebKit/537.36 (KHTML, like Gecko) Chrome/92.0.4515.159 Safari/537.36",1918,977,1920,1080,,,,,,,,4,1.8112,0.464814815,-0.412037037,1,0,0,next_trial_button,0,44,44,78,1,landscape,visiblesun,noclouds,9,"666.6666666666666,500",
,,,,,,,gr,gr,gr,m,24,,2021-09-01_13h29.02.336,online_experiment,2021.1.4,Win32,59.18560606,IwAR1Su62YtRLkdLxqQXQ6_g2NAZOz_ZxGCWnKIxkE-aHq0cd2db6ctvo6yjo,FALSE,,"Mozilla/5.0 (Windows NT 10.0; Win64; x64) AppleWebKit/537.36 (KHTML, like Gecko) Chrome/92.0.4515.159 Safari/537.36",1918,977,1920,1080,,,,,,,,2,1.5346,0.355555556,-0.411111111,1,0,0,next_trial_button,0,45,45,34,1,beach,visiblesun,noclouds,4,"749.6251874062968,500",
,,,,,,,gr,gr,gr,m,24,,2021-09-01_13h29.02.336,online_experiment,2021.1.4,Win32,59.18560606,IwAR1Su62YtRLkdLxqQXQ6_g2NAZOz_ZxGCWnKIxkE-aHq0cd2db6ctvo6yjo,FALSE,,"Mozilla/5.0 (Windows NT 10.0; Win64; x64) AppleWebKit/537.36 (KHTML, like Gecko) Chrome/92.0.4515.159 Safari/537.36",1918,977,1920,1080,,,,,,,,2,2.1539,0.436111111,-0.407407407,1,0,0,next_trial_button,0,46,46,56,1,beach,invisiblesun,noclouds,7,"1028.5714285714284,500",
,,,,,,,gr,gr,gr,m,24,,2021-09-01_13h29.02.336,online_experiment,2021.1.4,Win32,59.18560606,IwAR1Su62YtRLkdLxqQXQ6_g2NAZOz_ZxGCWnKIxkE-aHq0cd2db6ctvo6yjo,FALSE,,"Mozilla/5.0 (Windows NT 10.0; Win64; x64) AppleWebKit/537.36 (KHTML, like Gecko) Chrome/92.0.4515.159 Safari/537.36",1918,977,1920,1080,,,,,,,,4,1.6733,0.381481481,-0.434259259,1,0,0,next_trial_button,0,47,47,69,1,landscape,invisiblesun,yesclouds,8,"750,500",
,,,,,,,gr,gr,gr,m,24,,2021-09-01_13h29.02.336,online_experiment,2021.1.4,Win32,59.18560606,IwAR1Su62YtRLkdLxqQXQ6_g2NAZOz_ZxGCWnKIxkE-aHq0cd2db6ctvo6yjo,FALSE,,"Mozilla/5.0 (Windows NT 10.0; Win64; x64) AppleWebKit/537.36 (KHTML, like Gecko) Chrome/92.0.4515.159 Safari/537.36",1918,977,1920,1080,,,,,,,,3,3.1231,0.462037037,-0.431481481,1,0,0,next_trial_button,0,48,48,25,1,beach,invisiblesun,yesclouds,3,"750.4690431519699,500",
,,,,,,,gr,gr,gr,m,24,,2021-09-01_13h29.02.336,online_experiment,2021.1.4,Win32,59.18560606,IwAR1Su62YtRLkdLxqQXQ6_g2NAZOz_ZxGCWnKIxkE-aHq0cd2db6ctvo6yjo,FALSE,,"Mozilla/5.0 (Windows NT 10.0; Win64; x64) AppleWebKit/537.36 (KHTML, like Gecko) Chrome/92.0.4515.159 Safari/537.36",1918,977,1920,1080,,,,,,,,5,1.9439,0.489814815,-0.443518519,1,0,0,next_trial_button,0,49,49,6,1,landscape,visiblesun,noclouds,0,"1413.8005159071367,500",
,,,,,,,gr,gr,gr,m,24,,2021-09-01_13h29.02.336,online_experiment,2021.1.4,Win32,59.18560606,IwAR1Su62YtRLkdLxqQXQ6_g2NAZOz_ZxGCWnKIxkE-aHq0cd2db6ctvo6yjo,FALSE,,"Mozilla/5.0 (Windows NT 10.0; Win64; x64) AppleWebKit/537.36 (KHTML, like Gecko) Chrome/92.0.4515.159 Safari/537.36",1918,977,1920,1080,,,,,,,,3,1.4306,0.466666667,-0.425,1,0,0,next_trial_button,0,50,50,60,1,landscape,invisiblesun,noclouds,7,"666.7268134247564,500",
,,,,,,,gr,gr,gr,m,24,,2021-09-01_13h29.02.336,online_experiment,2021.1.4,Win32,59.18560606,IwAR1Su62YtRLkdLxqQXQ6_g2NAZOz_ZxGCWnKIxkE-aHq0cd2db6ctvo6yjo,FALSE,,"Mozilla/5.0 (Windows NT 10.0; Win64; x64) AppleWebKit/537.36 (KHTML, like Gecko) Chrome/92.0.4515.159 Safari/537.36",1918,977,1920,1080,,,,,,,,3,1.6905,0.49537037,-0.37037037,1,0,0,next_trial_button,0,51,51,0,1,beach,invisiblesun,noclouds,0,"750,500",
,,,,,,,gr,gr,gr,m,24,,2021-09-01_13h29.02.336,online_experiment,2021.1.4,Win32,59.18560606,IwAR1Su62YtRLkdLxqQXQ6_g2NAZOz_ZxGCWnKIxkE-aHq0cd2db6ctvo6yjo,FALSE,,"Mozilla/5.0 (Windows NT 10.0; Win64; x64) AppleWebKit/537.36 (KHTML, like Gecko) Chrome/92.0.4515.159 Safari/537.36",1918,977,1920,1080,,,,,,,,4,3.9738,0.513888889,-0.437037037,1,0,0,next_trial_button,0,52,52,72,1,beach,invisiblesun,noclouds,9,"888.8888888888888,500",
,,,,,,,gr,gr,gr,m,24,,2021-09-01_13h29.02.336,online_experiment,2021.1.4,Win32,59.18560606,IwAR1Su62YtRLkdLxqQXQ6_g2NAZOz_ZxGCWnKIxkE-aHq0cd2db6ctvo6yjo,FALSE,,"Mozilla/5.0 (Windows NT 10.0; Win64; x64) AppleWebKit/537.36 (KHTML, like Gecko) Chrome/92.0.4515.159 Safari/537.36",1918,977,1920,1080,,,,,,,,4,2.1566,0.390740741,-0.42037037,1,0,0,next_trial_button,0,53,53,59,1,beach,visiblesun,yesclouds,7,"888.9689978370584,500",
,,,,,,,gr,gr,gr,m,24,,2021-09-01_13h29.02.336,online_experiment,2021.1.4,Win32,59.18560606,IwAR1Su62YtRLkdLxqQXQ6_g2NAZOz_ZxGCWnKIxkE-aHq0cd2db6ctvo6yjo,FALSE,,"Mozilla/5.0 (Windows NT 10.0; Win64; x64) AppleWebKit/537.36 (KHTML, like Gecko) Chrome/92.0.4515.159 Safari/537.36",1918,977,1920,1080,,,,,,,,3,1.5956,0.362962963,-0.428703704,1,0,0,next_trial_button,0,54,54,66,1,beach,visiblesun,noclouds,8,"1028.5714285714284,500",
,,,,,,,gr,gr,gr,m,24,,2021-09-01_13h29.02.336,online_experiment,2021.1.4,Win32,59.18560606,IwAR1Su62YtRLkdLxqQXQ6_g2NAZOz_ZxGCWnKIxkE-aHq0cd2db6ctvo6yjo,FALSE,,"Mozilla/5.0 (Windows NT 10.0; Win64; x64) AppleWebKit/537.36 (KHTML, like Gecko) Chrome/92.0.4515.159 Safari/537.36",1918,977,1920,1080,,,,,,,,3,1.5418,0.505555556,-0.447222222,1,0,0,next_trial_button,0,55,55,2,1,beach,visiblesun,noclouds,0,"375,500",
,,,,,,,gr,gr,gr,m,24,,2021-09-01_13h29.02.336,online_experiment,2021.1.4,Win32,59.18560606,IwAR1Su62YtRLkdLxqQXQ6_g2NAZOz_ZxGCWnKIxkE-aHq0cd2db6ctvo6yjo,FALSE,,"Mozilla/5.0 (Windows NT 10.0; Win64; x64) AppleWebKit/537.36 (KHTML, like Gecko) Chrome/92.0.4515.159 Safari/537.36",1918,977,1920,1080,,,,,,,,3,1.5469,0.438888889,-0.427777778,1,0,0,next_trial_button,0,56,56,43,1,beach,visiblesun,yesclouds,5,"750,500",
,,,,,,,gr,gr,gr,m,24,,2021-09-01_13h29.02.336,online_experiment,2021.1.4,Win32,59.18560606,IwAR1Su62YtRLkdLxqQXQ6_g2NAZOz_ZxGCWnKIxkE-aHq0cd2db6ctvo6yjo,FALSE,,"Mozilla/5.0 (Windows NT 10.0; Win64; x64) AppleWebKit/537.36 (KHTML, like Gecko) Chrome/92.0.4515.159 Safari/537.36",1918,977,1920,1080,,,,,,,,5,1.939,0.35,-0.425,1,0,0,next_trial_button,0,57,57,46,1,landscape,visiblesun,noclouds,5,"750,500",
,,,,,,,gr,gr,gr,m,24,,2021-09-01_13h29.02.336,online_experiment,2021.1.4,Win32,59.18560606,IwAR1Su62YtRLkdLxqQXQ6_g2NAZOz_ZxGCWnKIxkE-aHq0cd2db6ctvo6yjo,FALSE,,"Mozilla/5.0 (Windows NT 10.0; Win64; x64) AppleWebKit/537.36 (KHTML, like Gecko) Chrome/92.0.4515.159 Safari/537.36",1918,977,1920,1080,,,,,,,,5,1.9659,0.485185185,-0.397222222,1,0,0,next_trial_button,0,58,58,57,1,beach,invisiblesun,yesclouds,7,"749.707488299532,500",
,,,,,,,gr,gr,gr,m,24,,2021-09-01_13h29.02.336,online_experiment,2021.1.4,Win32,59.18560606,IwAR1Su62YtRLkdLxqQXQ6_g2NAZOz_ZxGCWnKIxkE-aHq0cd2db6ctvo6yjo,FALSE,,"Mozilla/5.0 (Windows NT 10.0; Win64; x64) AppleWebKit/537.36 (KHTML, like Gecko) Chrome/92.0.4515.159 Safari/537.36",1918,977,1920,1080,,,,,,,,4,1.9424,0.467592593,-0.39537037,1,0,0,next_trial_button,0,59,59,26,1,beach,visiblesun,noclouds,3,"888.8888888888888,500",
,,,,,,,gr,gr,gr,m,24,,2021-09-01_13h29.02.336,online_experiment,2021.1.4,Win32,59.18560606,IwAR1Su62YtRLkdLxqQXQ6_g2NAZOz_ZxGCWnKIxkE-aHq0cd2db6ctvo6yjo,FALSE,,"Mozilla/5.0 (Windows NT 10.0; Win64; x64) AppleWebKit/537.36 (KHTML, like Gecko) Chrome/92.0.4515.159 Safari/537.36",1918,977,1920,1080,,,,,,,,4,1.4812,0.335185185,-0.391666667,1,0,0,next_trial_button,0,60,60,11,1,beach,visiblesun,yesclouds,1,"989.8132427843803,500",
,,,,,,,gr,gr,gr,m,24,,2021-09-01_13h29.02.336,online_experiment,2021.1.4,Win32,59.18560606,IwAR1Su62YtRLkdLxqQXQ6_g2NAZOz_ZxGCWnKIxkE-aHq0cd2db6ctvo6yjo,FALSE,,"Mozilla/5.0 (Windows NT 10.0; Win64; x64) AppleWebKit/537.36 (KHTML, like Gecko) Chrome/92.0.4515.159 Safari/537.36",1918,977,1920,1080,,,,,,,,4,1.515,0.3,-0.418518519,1,0,0,next_trial_button,0,61,61,54,1,landscape,visiblesun,noclouds,6,"695.0043821209465,500",
,,,,,,,gr,gr,gr,m,24,,2021-09-01_13h29.02.336,online_experiment,2021.1.4,Win32,59.18560606,IwAR1Su62YtRLkdLxqQXQ6_g2NAZOz_ZxGCWnKIxkE-aHq0cd2db6ctvo6yjo,FALSE,,"Mozilla/5.0 (Windows NT 10.0; Win64; x64) AppleWebKit/537.36 (KHTML, like Gecko) Chrome/92.0.4515.159 Safari/537.36",1918,977,1920,1080,,,,,,,,3,7.4895,0.512962963,-0.396296296,1,0,0,next_trial_button,0,62,62,21,1,landscape,invisiblesun,yesclouds,2,"750,500",
,,,,,,,gr,gr,gr,m,24,,2021-09-01_13h29.02.336,online_experiment,2021.1.4,Win32,59.18560606,IwAR1Su62YtRLkdLxqQXQ6_g2NAZOz_ZxGCWnKIxkE-aHq0cd2db6ctvo6yjo,FALSE,,"Mozilla/5.0 (Windows NT 10.0; Win64; x64) AppleWebKit/537.36 (KHTML, like Gecko) Chrome/92.0.4515.159 Safari/537.36",1918,977,1920,1080,,,,,,,,5,1.5311,0.40462963,-0.438888889,1,0,0,next_trial_button,0,63,63,14,1,landscape,visiblesun,noclouds,1,"745.9919839679359,500",
,,,,,,,gr,gr,gr,m,24,,2021-09-01_13h29.02.336,online_experiment,2021.1.4,Win32,59.18560606,IwAR1Su62YtRLkdLxqQXQ6_g2NAZOz_ZxGCWnKIxkE-aHq0cd2db6ctvo6yjo,FALSE,,"Mozilla/5.0 (Windows NT 10.0; Win64; x64) AppleWebKit/537.36 (KHTML, like Gecko) Chrome/92.0.4515.159 Safari/537.36",1918,977,1920,1080,,,,,,,,4,1.5535,0.375925926,-0.439814815,1,0,0,next_trial_button,0,64,64,51,1,beach,visiblesun,yesclouds,6,"657.1279916753382,500",
,,,,,,,gr,gr,gr,m,24,,2021-09-01_13h29.02.336,online_experiment,2021.1.4,Win32,59.18560606,IwAR1Su62YtRLkdLxqQXQ6_g2NAZOz_ZxGCWnKIxkE-aHq0cd2db6ctvo6yjo,FALSE,,"Mozilla/5.0 (Windows NT 10.0; Win64; x64) AppleWebKit/537.36 (KHTML, like Gecko) Chrome/92.0.4515.159 Safari/537.36",1918,977,1920,1080,,,,,,,,6,1.5523,0.42037037,-0.417592593,1,0,0,next_trial_button,0,65,65,35,1,beach,visiblesun,yesclouds,4,"750,500",
,,,,,,,gr,gr,gr,m,24,,2021-09-01_13h29.02.336,online_experiment,2021.1.4,Win32,59.18560606,IwAR1Su62YtRLkdLxqQXQ6_g2NAZOz_ZxGCWnKIxkE-aHq0cd2db6ctvo6yjo,FALSE,,"Mozilla/5.0 (Windows NT 10.0; Win64; x64) AppleWebKit/537.36 (KHTML, like Gecko) Chrome/92.0.4515.159 Safari/537.36",1918,977,1920,1080,,,,,,,,3,1.7578,0.462962963,-0.421296296,1,0,0,next_trial_button,0,66,66,52,1,landscape,invisiblesun,noclouds,6,"666.6666666666666,500",
,,,,,,,gr,gr,gr,m,24,,2021-09-01_13h29.02.336,online_experiment,2021.1.4,Win32,59.18560606,IwAR1Su62YtRLkdLxqQXQ6_g2NAZOz_ZxGCWnKIxkE-aHq0cd2db6ctvo6yjo,FALSE,,"Mozilla/5.0 (Windows NT 10.0; Win64; x64) AppleWebKit/537.36 (KHTML, like Gecko) Chrome/92.0.4515.159 Safari/537.36",1918,977,1920,1080,,,,,,,,8,1.563,0.368518519,-0.419444444,1,0,0,next_trial_button,0,67,67,45,1,landscape,invisiblesun,yesclouds,5,"749.6251874062968,500",
,,,,,,,gr,gr,gr,m,24,,2021-09-01_13h29.02.336,online_experiment,2021.1.4,Win32,59.18560606,IwAR1Su62YtRLkdLxqQXQ6_g2NAZOz_ZxGCWnKIxkE-aHq0cd2db6ctvo6yjo,FALSE,,"Mozilla/5.0 (Windows NT 10.0; Win64; x64) AppleWebKit/537.36 (KHTML, like Gecko) Chrome/92.0.4515.159 Safari/537.36",1918,977,1920,1080,,,,,,,,5,1.8229,0.497222222,-0.410185185,1,0,0,next_trial_button,0,68,68,36,1,landscape,invisiblesun,noclouds,4,"281.25,500",
,,,,,,,gr,gr,gr,m,24,,2021-09-01_13h29.02.336,online_experiment,2021.1.4,Win32,59.18560606,IwAR1Su62YtRLkdLxqQXQ6_g2NAZOz_ZxGCWnKIxkE-aHq0cd2db6ctvo6yjo,FALSE,,"Mozilla/5.0 (Windows NT 10.0; Win64; x64) AppleWebKit/537.36 (KHTML, like Gecko) Chrome/92.0.4515.159 Safari/537.36",1918,977,1920,1080,,,,,,,,7,1.6745,0.367592593,-0.414814815,1,0,0,next_trial_button,0,69,69,17,1,beach,invisiblesun,yesclouds,2,"684.8635235732011,500",
,,,,,,,gr,gr,gr,m,24,,2021-09-01_13h29.02.336,online_experiment,2021.1.4,Win32,59.18560606,IwAR1Su62YtRLkdLxqQXQ6_g2NAZOz_ZxGCWnKIxkE-aHq0cd2db6ctvo6yjo,FALSE,,"Mozilla/5.0 (Windows NT 10.0; Win64; x64) AppleWebKit/537.36 (KHTML, like Gecko) Chrome/92.0.4515.159 Safari/537.36",1918,977,1920,1080,,,,,,,,3,1.915,0.375925926,-0.382407407,1,0,0,next_trial_button,0,70,70,74,1,beach,visiblesun,noclouds,9,"1028.5714285714284,500",
,,,,,,,gr,gr,gr,m,24,,2021-09-01_13h29.02.336,online_experiment,2021.1.4,Win32,59.18560606,IwAR1Su62YtRLkdLxqQXQ6_g2NAZOz_ZxGCWnKIxkE-aHq0cd2db6ctvo6yjo,FALSE,,"Mozilla/5.0 (Windows NT 10.0; Win64; x64) AppleWebKit/537.36 (KHTML, like Gecko) Chrome/92.0.4515.159 Safari/537.36",1918,977,1920,1080,,,,,,,,6,2.1786,0.50462963,-0.406481481,1,0,0,next_trial_button,0,71,71,28,1,landscape,invisiblesun,noclouds,3,"888.8888888888888,500",
,,,,,,,gr,gr,gr,m,24,,2021-09-01_13h29.02.336,online_experiment,2021.1.4,Win32,59.18560606,IwAR1Su62YtRLkdLxqQXQ6_g2NAZOz_ZxGCWnKIxkE-aHq0cd2db6ctvo6yjo,FALSE,,"Mozilla/5.0 (Windows NT 10.0; Win64; x64) AppleWebKit/537.36 (KHTML, like Gecko) Chrome/92.0.4515.159 Safari/537.36",1918,977,1920,1080,,,,,,,,7,1.3904,0.317592593,-0.397222222,1,0,0,next_trial_button,0,72,72,24,1,beach,invisiblesun,noclouds,3,"750.089190153407,500",
,,,,,,,gr,gr,gr,m,24,,2021-09-01_13h29.02.336,online_experiment,2021.1.4,Win32,59.18560606,IwAR1Su62YtRLkdLxqQXQ6_g2NAZOz_ZxGCWnKIxkE-aHq0cd2db6ctvo6yjo,FALSE,,"Mozilla/5.0 (Windows NT 10.0; Win64; x64) AppleWebKit/537.36 (KHTML, like Gecko) Chrome/92.0.4515.159 Safari/537.36",1918,977,1920,1080,,,,,,,,7,1.3691,0.428703704,-0.416666667,1,0,0,next_trial_button,0,73,73,39,1,landscape,visiblesun,yesclouds,4,"749.7656982193065,500",
,,,,,,,gr,gr,gr,m,24,,2021-09-01_13h29.02.336,online_experiment,2021.1.4,Win32,59.18560606,IwAR1Su62YtRLkdLxqQXQ6_g2NAZOz_ZxGCWnKIxkE-aHq0cd2db6ctvo6yjo,FALSE,,"Mozilla/5.0 (Windows NT 10.0; Win64; x64) AppleWebKit/537.36 (KHTML, like Gecko) Chrome/92.0.4515.159 Safari/537.36",1918,977,1920,1080,,,,,,,,7,1.5017,0.296296296,-0.405555556,1,0,0,next_trial_button,0,74,74,12,1,landscape,invisiblesun,noclouds,1,"666.6666666666666,500",
,,,,,,,gr,gr,gr,m,24,,2021-09-01_13h29.02.336,online_experiment,2021.1.4,Win32,59.18560606,IwAR1Su62YtRLkdLxqQXQ6_g2NAZOz_ZxGCWnKIxkE-aHq0cd2db6ctvo6yjo,FALSE,,"Mozilla/5.0 (Windows NT 10.0; Win64; x64) AppleWebKit/537.36 (KHTML, like Gecko) Chrome/92.0.4515.159 Safari/537.36",1918,977,1920,1080,,,,,,,,3,1.5698,0.413888889,-0.39537037,1,0,0,next_trial_button,0,75,75,68,1,landscape,invisiblesun,noclouds,8,"666.6666666666666,500",
,,,,,,,gr,gr,gr,m,24,,2021-09-01_13h29.02.336,online_experiment,2021.1.4,Win32,59.18560606,IwAR1Su62YtRLkdLxqQXQ6_g2NAZOz_ZxGCWnKIxkE-aHq0cd2db6ctvo6yjo,FALSE,,"Mozilla/5.0 (Windows NT 10.0; Win64; x64) AppleWebKit/537.36 (KHTML, like Gecko) Chrome/92.0.4515.159 Safari/537.36",1918,977,1920,1080,,,,,,,,5,1.5115,0.414814815,-0.413888889,1,0,0,next_trial_button,0,76,76,64,1,beach,invisiblesun,noclouds,8,"1028.5714285714284,500",
,,,,,,,gr,gr,gr,m,24,,2021-09-01_13h29.02.336,online_experiment,2021.1.4,Win32,59.18560606,IwAR1Su62YtRLkdLxqQXQ6_g2NAZOz_ZxGCWnKIxkE-aHq0cd2db6ctvo6yjo,FALSE,,"Mozilla/5.0 (Windows NT 10.0; Win64; x64) AppleWebKit/537.36 (KHTML, like Gecko) Chrome/92.0.4515.159 Safari/537.36",1918,977,1920,1080,,,,,,,,3,1.9497,0.426851852,-0.428703704,1,0,0,next_trial_button,0,77,77,42,1,beach,visiblesun,noclouds,5,"834.4594594594595,500",
,,,,,,,gr,gr,gr,m,24,,2021-09-01_13h29.02.336,online_experiment,2021.1.4,Win32,59.18560606,IwAR1Su62YtRLkdLxqQXQ6_g2NAZOz_ZxGCWnKIxkE-aHq0cd2db6ctvo6yjo,FALSE,,"Mozilla/5.0 (Windows NT 10.0; Win64; x64) AppleWebKit/537.36 (KHTML, like Gecko) Chrome/92.0.4515.159 Safari/537.36",1918,977,1920,1080,,,,,,,,8,1.6176,0.402777778,-0.407407407,1,0,0,next_trial_button,0,78,78,41,1,beach,invisiblesun,yesclouds,5,"1248.4394506866417,500",
,,,,,,,gr,gr,gr,m,24,,2021-09-01_13h29.02.336,online_experiment,2021.1.4,Win32,59.18560606,IwAR1Su62YtRLkdLxqQXQ6_g2NAZOz_ZxGCWnKIxkE-aHq0cd2db6ctvo6yjo,FALSE,,"Mozilla/5.0 (Windows NT 10.0; Win64; x64) AppleWebKit/537.36 (KHTML, like Gecko) Chrome/92.0.4515.159 Safari/537.36",1918,977,1920,1080,,,,,,,,3,1.4488,0.30462963,-0.400925926,1,0,0,next_trial_button,0,79,79,7,1,landscape,visiblesun,yesclouds,0,"743.421052631579,500",
,,,,,,,gr,gr,gr,m,24,,2021-09-01_13h29.02.336,online_experiment,2021.1.4,Win32,59.18560606,IwAR1Su62YtRLkdLxqQXQ6_g2NAZOz_ZxGCWnKIxkE-aHq0cd2db6ctvo6yjo,FALSE,,"Mozilla/5.0 (Windows NT 10.0; Win64; x64) AppleWebKit/537.36 (KHTML, like Gecko) Chrome/92.0.4515.159 Safari/537.36",1918,977,1920,1080,,,,,,,,,,,,,,,,,,,,,,,,,"743.421052631579,500",235.0444
